#time,accel_x,accel_y,accel_z
4201.368390,-9770.718434,-148.041188,536.266849
4201.368720,-9622.677246,0.000000,842.705048
4201.369049,-9770.718434,0.000000,459.657299
4201.369379,-9622.677246,0.000000,76.609550
4201.369709,-9696.697840,148.041188,383.047749
4201.370039,-9326.594869,0.000000,229.828649
4201.370368,-9844.739029,222.061783,229.828649
4201.370698,-9622.677246,0.000000,0.000000
4201.371028,-9918.759623,222.061783,0.000000
4201.371358,-9622.677246,74.020594,0.000000
4201.371687,-9844.739029,148.041188,0.000000
4201.372017,-9844.739029,148.041188,76.609550
4201.372347,-9548.656652,-296.082377,306.438199
4201.372677,-9548.656652,-296.082377,612.876398
4201.373006,-9326.594869,0.000000,1072.533697
4201.373336,-9622.677246,-296.082377,842.705048
4201.373666,-9622.677246,0.000000,1072.533697
4201.373996,-9918.759623,148.041188,766.095498
4201.374325,-9844.739029,148.041188,0.000000
4201.374655,-9918.759623,222.061783,766.095498
4201.374985,-9992.780217,0.000000,842.705048
4201.375315,-9696.697840,-148.041188,1149.143247
4201.375644,-9696.697840,0.000000,1455.581446
4201.375974,-9770.718434,0.000000,1838.629195
4201.376304,-10140.821405,148.041188,1685.410096
4201.376634,-10066.800811,-444.123565,919.314598
4201.376963,-9918.759623,-444.123565,153.219100
4201.377293,-9622.677246,-148.041188,-306.438199
4201.377623,-9770.718434,-518.144159,306.438199
4201.377952,-9622.677246,-444.123565,1149.143247
4201.378282,-9770.718434,-814.226536,1608.800546
4201.378612,-9178.553681,-518.144159,1685.410096
4201.378942,-9326.594869,-740.205942,2145.067394
4201.379271,-9622.677246,-666.185348,2221.676944
4201.379601,-9918.759623,-962.267725,1991.848295
4201.379931,-9844.739029,-444.123565,2374.896044
4201.380261,-10066.800811,-814.226536,2221.676944
4201.380590,-10584.944971,-740.205942,2757.943793
4201.380920,-10362.883188,-1036.288319,2757.943793
4201.381250,-10066.800811,-1110.308913,2221.676944
4201.381580,-9918.759623,-592.164754,1608.800546
4201.381909,-10214.842000,-666.185348,1302.362347
4201.382239,-9622.677246,-962.267725,1455.581446
4201.382569,-9622.677246,-1258.350101,1762.019645
4201.382899,-10066.800811,-1776.494261,2068.457845
4201.383228,-10288.862594,-2664.741391,3140.991542
4201.383558,-9770.718434,-2960.823768,2757.943793
4201.383888,-9030.512492,-3478.967927,2451.505594
4201.384218,-8586.388927,-3552.988522,3753.867940
4201.384547,-8734.430116,-3701.029710,4290.134789
4201.384877,-9326.594869,-2960.823768,4060.306139
4201.385207,-9696.697840,-2960.823768,4060.306139
4201.385537,-10436.903782,-2590.720797,3907.087040
4201.385866,-10881.027347,-2738.761985,2911.162892
4201.386196,-11177.109724,-2442.679609,1838.629195
4201.386526,-10658.965565,-2812.782580,995.924147
4201.386856,-9474.636058,-2738.761985,229.828649
4201.387185,-8290.306550,-3330.926739,1072.533697
4201.387515,-8142.265362,-3256.906145,1225.752797
4201.387845,-9178.553681,-3478.967927,2298.286494
4201.388174,-9474.636058,-3627.009116,3140.991542
4201.388504,-9918.759623,-4145.153275,3907.087040
4201.388834,-10214.842000,-4219.173869,3447.429741
4201.389164,-9622.677246,-4885.359217,3370.820191
4201.389493,-9844.739029,-3997.112087,3753.867940
4201.389823,-9770.718434,-3478.967927,4443.353888
4201.390153,-10140.821405,-2664.741391,3753.867940
4201.390483,-10584.944971,-2368.659014,1838.629195
4201.390812,-10658.965565,-2368.659014,383.047749
4201.391142,-10584.944971,-2220.617826,536.266849
4201.391472,-10288.862594,-2738.761985,1838.629195
4201.391802,-9918.759623,-3330.926739,2528.115143
4201.392131,-9474.636058,-3701.029710,2604.724693
4201.392461,-8956.491898,-3256.906145,1532.190996
4201.392791,-8882.471304,-3627.009116,1225.752797
4201.393121,-9770.718434,-2960.823768,2528.115143
4201.393450,-10510.924376,-3034.844362,4136.915689
4201.393780,-11251.130318,-2072.576638,4749.792088
4201.394110,-10436.903782,-2072.576638,4136.915689
4201.394440,-9918.759623,-2368.659014,2757.943793
4201.394769,-9770.718434,-2368.659014,2145.067394
4201.395099,-10362.883188,-2516.700203,1915.238745
4201.395429,-9696.697840,-2368.659014,1762.019645
4201.395759,-8956.491898,-1998.556043,2604.724693
4201.396088,-8660.409521,-1554.432478,1762.019645
4201.396418,-9622.677246,-1554.432478,1685.410096
4201.396748,-10362.883188,-1480.411884,612.876398
4201.397077,-10066.800811,-1258.350101,612.876398
4201.397407,-9696.697840,-1702.473667,1685.410096
4201.397737,-9474.636058,-1776.494261,3064.381992
4201.398067,-9030.512492,-1628.453072,4519.963438
4201.398396,-9622.677246,-1036.288319,4903.011187
4201.398726,-10066.800811,-814.226536,3064.381992
4201.399056,-11325.150913,-1036.288319,1378.971896
4201.399386,-10140.821405,-814.226536,1685.410096
4201.399715,-9696.697840,-592.164754,2068.457845
4201.400045,-9844.739029,-518.144159,2911.162892
4201.400375,-9474.636058,-888.247130,1991.848295
4201.400705,-9178.553681,-888.247130,306.438199
4201.401034,-8586.388927,-814.226536,-536.266849
4201.401364,-9030.512492,-148.041188,0.000000
4201.401694,-9548.656652,-444.123565,1225.752797
4201.402024,-9992.780217,-296.082377,2221.676944
4201.402353,-9548.656652,-592.164754,2604.724693
4201.402683,-10510.924376,-444.123565,3447.429741
4201.403013,-11103.089130,-740.205942,2298.286494
4201.403343,-10584.944971,-1110.308913,2374.896044
4201.403672,-9474.636058,-1332.370696,2221.676944
4201.404002,-9844.739029,-814.226536,2528.115143
4201.404332,-10066.800811,-814.226536,2911.162892
4201.404662,-9770.718434,-1406.391290,2528.115143
4201.404991,-9770.718434,-740.205942,1455.581446
4201.405321,-9474.636058,-1406.391290,459.657299
4201.405651,-10362.883188,-1628.453072,1378.971896
4201.405981,-9844.739029,-1628.453072,2451.505594
4201.406310,-8956.491898,-2146.597232,2757.943793
4201.406640,-9326.594869,-2072.576638,2528.115143
4201.406970,-9770.718434,-2294.638420,2528.115143
4201.407299,-10362.883188,-2442.679609,2298.286494
4201.407629,-10436.903782,-2812.782580,2528.115143
4201.407959,-10066.800811,-2220.617826,3983.696590
4201.408289,-10140.821405,-2368.659014,5592.497135
4201.408618,-9326.594869,-2442.679609,4213.525239
4201.408948,-9474.636058,-2516.700203,3294.210641
4201.409278,-10955.047942,-2368.659014,2451.505594
4201.409608,-11177.109724,-2368.659014,1532.190996
4201.409937,-10510.924376,-2294.638420,1225.752797
4201.410267,-8586.388927,-3849.070898,2068.457845
4201.410597,-8808.450710,-3404.947333,2528.115143
4201.410927,-9548.656652,-3552.988522,3677.258390
4201.411256,-10510.924376,-3108.864956,2681.334243
4201.411586,-9326.594869,-3256.906145,2604.724693
4201.411916,-9104.533087,-3627.009116,3294.210641
4201.412246,-10510.924376,-3330.926739,4366.744339
4201.412575,-11029.068536,-3034.844362,5822.325785
4201.412905,-9992.780217,-3256.906145,4060.306139
4201.413235,-9030.512492,-3552.988522,2451.505594
4201.413565,-10066.800811,-2738.761985,1838.629195
4201.413894,-10732.986159,-2960.823768,2221.676944
4201.414224,-10732.986159,-2738.761985,2757.943793
4201.414554,-9622.677246,-2072.576638,2911.162892
4201.414884,-9770.718434,-3108.864956,1532.190996
4201.415213,-9622.677246,-2738.761985,766.095498
4201.415543,-9474.636058,-3256.906145,1225.752797
4201.415873,-9622.677246,-2886.803174,2068.457845
4201.416203,-9400.615463,-3108.864956,2911.162892
4201.416532,-9548.656652,-2886.803174,3447.429741
4201.416862,-9770.718434,-3552.988522,4213.525239
4201.417192,-9918.759623,-2294.638420,2987.772442
4201.417521,-10807.006753,-2442.679609,2987.772442
4201.417851,-10658.965565,-2442.679609,2911.162892
4201.418181,-9252.574275,-2368.659014,2757.943793
4201.418511,-9400.615463,-2294.638420,3064.381992
4201.418840,-9918.759623,-1480.411884,2987.772442
4201.419170,-10584.944971,-1702.473667,2834.553343
4201.419500,-10140.821405,-1332.370696,995.924147
4201.419830,-9622.677246,-1702.473667,0.000000
4201.420159,-9696.697840,-1110.308913,1072.533697
4201.420489,-9474.636058,-1776.494261,2145.067394
4201.420819,-9030.512492,-1850.514855,1838.629195
4201.421149,-8734.430116,-1480.411884,3064.381992
4201.421478,-9844.739029,-1998.556043,2987.772442
4201.421808,-10658.965565,-1554.432478,3294.210641
4201.422138,-9696.697840,-1924.535449,3064.381992
4201.422468,-9548.656652,-1776.494261,3907.087040
4201.422798,-9548.656652,-1628.453072,3294.210641
4201.423128,-9622.677246,-1332.370696,2604.724693
4201.423458,-9252.574275,-1332.370696,1455.581446
4201.423788,-9696.697840,-1258.350101,306.438199
4201.424118,-9400.615463,-666.185348,612.876398
4201.424447,-10140.821405,-1110.308913,1072.533697
4201.424777,-10140.821405,-740.205942,1378.971896
4201.425107,-10140.821405,-1406.391290,1378.971896
4201.425437,-8956.491898,-1776.494261,1838.629195
4201.425767,-9326.594869,-1406.391290,2911.162892
4201.426097,-9770.718434,-1332.370696,3294.210641
4201.426427,-10436.903782,-1702.473667,2681.334243
4201.426757,-11029.068536,-1776.494261,3064.381992
4201.427087,-10214.842000,-1406.391290,2604.724693
4201.427417,-9548.656652,-1258.350101,2681.334243
4201.427747,-9622.677246,-888.247130,1532.190996
4201.428077,-9992.780217,-814.226536,1915.238745
4201.428406,-9548.656652,-888.247130,1149.143247
4201.428736,-9992.780217,-1036.288319,612.876398
4201.429066,-10881.027347,-1184.329507,1838.629195
4201.429396,-10584.944971,-1702.473667,2298.286494
4201.429726,-10140.821405,-1554.432478,1685.410096
4201.430056,-8956.491898,-1702.473667,1838.629195
4201.430386,-9030.512492,-1850.514855,1915.238745
4201.430716,-9622.677246,-1554.432478,3064.381992
4201.431046,-9696.697840,-1332.370696,4290.134789
4201.431376,-10881.027347,-962.267725,4136.915689
4201.431706,-10955.047942,-1110.308913,2834.553343
4201.432036,-10510.924376,-1480.411884,995.924147
4201.432365,-9548.656652,-2368.659014,536.266849
4201.432695,-9326.594869,-1702.473667,76.609550
4201.433025,-8956.491898,-1258.350101,842.705048
4201.433355,-9474.636058,-1554.432478,1072.533697
4201.433685,-8882.471304,-1332.370696,383.047749
4201.434015,-9104.533087,-1184.329507,1608.800546
4201.434345,-10436.903782,-1258.350101,1991.848295
4201.434675,-11103.089130,-1258.350101,1608.800546
4201.435005,-10510.924376,-1702.473667,2068.457845
4201.435335,-9548.656652,-2664.741391,1915.238745
4201.435665,-9104.533087,-1776.494261,2145.067394
4201.435995,-9770.718434,-1554.432478,2681.334243
4201.436325,-10066.800811,-1702.473667,1225.752797
4201.436654,-8586.388927,-1110.308913,76.609550
4201.436984,-9548.656652,-1110.308913,383.047749
4201.437314,-10732.986159,-1184.329507,689.485948
4201.437644,-9400.615463,-1184.329507,2374.896044
4201.437974,-8512.368333,-1702.473667,2374.896044
4201.438304,-9400.615463,-740.205942,1991.848295
4201.438634,-10732.986159,-370.102971,2221.676944
4201.438964,-10955.047942,-1332.370696,1072.533697
4201.439294,-10510.924376,-888.247130,1532.190996
4201.439624,-11177.109724,-666.185348,1608.800546
4201.439954,-11621.233289,-740.205942,1302.362347
4201.440284,-9770.718434,-1036.288319,383.047749
4201.440613,-7994.224174,-592.164754,0.000000
4201.440943,-7772.162391,-222.061783,383.047749
4201.441273,-9622.677246,-296.082377,0.000000
4201.441603,-9622.677246,-592.164754,-153.219100
4201.441933,-9918.759623,-148.041188,229.828649
4201.442263,-10140.821405,148.041188,536.266849
4201.442593,-11251.130318,-814.226536,76.609550
4201.442923,-10658.965565,-518.144159,-995.924147
4201.443253,-7994.224174,-1258.350101,-459.657299
4201.443583,-8882.471304,-518.144159,459.657299
4201.443913,-8438.347739,-740.205942,459.657299
4201.444243,-9326.594869,518.144159,536.266849
4201.444572,-9400.615463,592.164754,0.000000
4201.444902,-10066.800811,74.020594,-612.876398
4201.445232,-10288.862594,1110.308913,0.000000
4201.445562,-10288.862594,0.000000,0.000000
4201.445892,-9844.739029,74.020594,-76.609550
4201.446222,-8882.471304,296.082377,-383.047749
4201.446552,-9918.759623,444.123565,-2068.457845
4201.446882,-11029.068536,370.102971,-1455.581446
4201.447212,-9992.780217,0.000000,-1378.971896
4201.447542,-8068.244768,-74.020594,-76.609550
4201.447872,-8290.306550,740.205942,1225.752797
4201.448202,-9696.697840,1258.350101,1149.143247
4201.448531,-10658.965565,1258.350101,766.095498
4201.448861,-11695.253884,1332.370696,-459.657299
4201.449191,-11103.089130,518.144159,-995.924147
4201.449521,-10436.903782,740.205942,76.609550
4201.449851,-9400.615463,444.123565,766.095498
4201.450181,-9474.636058,888.247130,842.705048
4201.450511,-9400.615463,962.267725,-383.047749
4201.450841,-8660.409521,518.144159,-2374.896044
4201.451171,-9844.739029,1110.308913,-2451.505594
4201.451501,-9474.636058,814.226536,-1455.581446
4201.451831,-9474.636058,1110.308913,612.876398
4201.452161,-9178.553681,1184.329507,1149.143247
4201.452491,-9252.574275,1110.308913,-306.438199
4201.452820,-9844.739029,666.185348,-2298.286494
4201.453150,-11325.150913,444.123565,-1302.362347
4201.453480,-10658.965565,592.164754,306.438199
4201.453810,-9474.636058,592.164754,1302.362347
4201.454140,-9326.594869,962.267725,2681.334243
4201.454470,-8660.409521,74.020594,1378.971896
4201.454800,-8956.491898,296.082377,0.000000
4201.455130,-9400.615463,1184.329507,-1149.143247
4201.455460,-10510.924376,740.205942,-1302.362347
4201.455790,-10066.800811,740.205942,612.876398
4201.456120,-9474.636058,888.247130,1838.629195
4201.456450,-10214.842000,666.185348,1762.019645
4201.456779,-10658.965565,592.164754,459.657299
4201.457109,-10881.027347,444.123565,-229.828649
4201.457439,-9400.615463,-592.164754,-306.438199
4201.457769,-8956.491898,0.000000,1225.752797
4201.458099,-9622.677246,444.123565,2604.724693
4201.458429,-10732.986159,148.041188,2451.505594
4201.458759,-11029.068536,518.144159,612.876398
4201.459089,-10214.842000,-1702.473667,-3294.210641
4201.459419,-8364.327145,1406.391290,-1149.143247
4201.459749,-9474.636058,-518.144159,919.314598
4201.460079,-9696.697840,-370.102971,1838.629195
4201.460409,-8438.347739,-962.267725,2145.067394
4201.460738,-9696.697840,0.000000,306.438199
4201.461068,-9622.677246,-1036.288319,-1532.190996
4201.461398,-9696.697840,-888.247130,-1532.190996
4201.461728,-10140.821405,-1036.288319,1072.533697
4201.462058,-9696.697840,-74.020594,2451.505594
4201.462388,-10584.944971,-962.267725,2681.334243
4201.462718,-9400.615463,-666.185348,1378.971896
4201.463048,-9770.718434,-518.144159,-1302.362347
4201.463378,-11029.068536,0.000000,-2221.676944
4201.463708,-10140.821405,-148.041188,-1072.533697
4201.464038,-10140.821405,0.000000,1225.752797
4201.464368,-9400.615463,296.082377,1762.019645
4201.464697,-9844.739029,-888.247130,1532.190996
4201.465027,-10658.965565,-962.267725,-995.924147
4201.465357,-10140.821405,-1406.391290,-689.485948
4201.465687,-9696.697840,-444.123565,0.000000
4201.466017,-9252.574275,-1258.350101,536.266849
4201.466347,-8660.409521,-370.102971,1225.752797
4201.466677,-8882.471304,-370.102971,1762.019645
4201.467007,-10436.903782,666.185348,229.828649
4201.467337,-11843.295072,592.164754,-689.485948
4201.467667,-11325.150913,0.000000,-1608.800546
4201.467997,-9844.739029,0.000000,383.047749
4201.468327,-9326.594869,-888.247130,1608.800546
4201.468656,-9104.533087,-444.123565,536.266849
4201.468986,-8438.347739,-962.267725,-1225.752797
4201.469316,-7994.224174,-296.082377,-2451.505594
4201.469646,-9030.512492,-370.102971,-1455.581446
4201.469976,-10288.862594,296.082377,153.219100
4201.470306,-9844.739029,0.000000,1455.581446
4201.470636,-9104.533087,-444.123565,2221.676944
4201.470966,-8808.450710,0.000000,1608.800546
4201.471296,-10214.842000,0.000000,383.047749
4201.471626,-11399.171507,74.020594,0.000000
4201.471956,-10288.862594,0.000000,383.047749
4201.472286,-9696.697840,0.000000,919.314598
4201.472616,-8734.430116,-74.020594,1455.581446
4201.472945,-9474.636058,518.144159,383.047749
4201.473275,-9844.739029,666.185348,-612.876398
4201.473605,-9400.615463,370.102971,-1838.629195
4201.473935,-10955.047942,592.164754,-766.095498
4201.474265,-10066.800811,592.164754,153.219100
4201.474595,-10066.800811,296.082377,766.095498
4201.474925,-9844.739029,296.082377,995.924147
4201.475255,-9548.656652,296.082377,153.219100
4201.475585,-9992.780217,592.164754,-1838.629195
4201.475915,-10214.842000,740.205942,-1072.533697
4201.476245,-9622.677246,222.061783,383.047749
4201.476575,-9178.553681,370.102971,1225.752797
4201.476904,-8808.450710,888.247130,919.314598
4201.477234,-9030.512492,814.226536,-1225.752797
4201.477564,-9992.780217,962.267725,-1915.238745
4201.477894,-10362.883188,222.061783,-689.485948
4201.478224,-9992.780217,74.020594,842.705048
4201.478554,-9474.636058,296.082377,2145.067394
4201.478884,-9400.615463,370.102971,1838.629195
4201.479214,-10066.800811,370.102971,1149.143247
4201.479544,-9844.739029,0.000000,306.438199
4201.479874,-9548.656652,370.102971,-612.876398
4201.480204,-10140.821405,370.102971,-76.609550
4201.480534,-9474.636058,740.205942,766.095498
4201.480863,-9622.677246,1258.350101,1225.752797
4201.481193,-10362.883188,1258.350101,153.219100
4201.481523,-10807.006753,222.061783,-1149.143247
4201.481853,-10436.903782,-444.123565,-1225.752797
4201.482183,-8512.368333,-222.061783,-536.266849
4201.482513,-9252.574275,-814.226536,229.828649
4201.482843,-9770.718434,222.061783,1149.143247
4201.483173,-9770.718434,0.000000,229.828649
4201.483503,-9104.533087,148.041188,-842.705048
4201.483833,-9474.636058,592.164754,0.000000
4201.484163,-10436.903782,148.041188,0.000000
4201.484493,-10066.800811,-444.123565,1225.752797
4201.484822,-9696.697840,0.000000,1455.581446
4201.485152,-8808.450710,-888.247130,766.095498
4201.485482,-9844.739029,-814.226536,-536.266849
4201.485812,-10066.800811,-962.267725,-612.876398
4201.486142,-9622.677246,-1184.329507,76.609550
4201.486472,-8586.388927,-296.082377,383.047749
4201.486802,-8660.409521,-148.041188,612.876398
4201.487132,-10288.862594,444.123565,0.000000
4201.487462,-10658.965565,370.102971,-459.657299
4201.487792,-11103.089130,444.123565,0.000000
4201.488122,-11399.171507,0.000000,306.438199
4201.488452,-10955.047942,-296.082377,689.485948
4201.488781,-9548.656652,-888.247130,1762.019645
4201.489111,-8290.306550,-666.185348,919.314598
4201.489441,-9104.533087,-74.020594,76.609550
4201.489771,-10214.842000,-370.102971,-153.219100
4201.490101,-10288.862594,-148.041188,-689.485948
4201.490431,-10066.800811,-444.123565,306.438199
4201.490761,-10140.821405,740.205942,1225.752797
4201.491091,-10436.903782,148.041188,766.095498
4201.491421,-9548.656652,148.041188,-842.705048
4201.491751,-8364.327145,-962.267725,-1455.581446
4201.492081,-9696.697840,-148.041188,-842.705048
4201.492411,-10214.842000,0.000000,76.609550
4201.492741,-9844.739029,0.000000,689.485948
4201.493070,-9104.533087,-296.082377,612.876398
4201.493400,-8364.327145,-592.164754,459.657299
4201.493730,-9548.656652,-666.185348,536.266849
4201.494060,-10807.006753,-222.061783,383.047749
4201.494390,-10214.842000,74.020594,1072.533697
4201.494720,-9844.739029,-444.123565,1072.533697
4201.495050,-9622.677246,-370.102971,1378.971896
4201.495380,-10214.842000,148.041188,1685.410096
4201.495710,-11325.150913,740.205942,919.314598
4201.496040,-10436.903782,-370.102971,0.000000
4201.496370,-9474.636058,-444.123565,76.609550
4201.496700,-9474.636058,444.123565,1149.143247
4201.497029,-9844.739029,0.000000,1608.800546
4201.497359,-9474.636058,0.000000,766.095498
4201.497689,-9400.615463,0.000000,0.000000
4201.498019,-8882.471304,296.082377,-1149.143247
4201.498349,-9844.739029,222.061783,-612.876398
4201.498679,-10214.842000,0.000000,-153.219100
4201.499009,-9474.636058,0.000000,1302.362347
4201.499339,-9548.656652,0.000000,1838.629195
4201.499669,-9030.512492,-444.123565,0.000000
4201.499999,-9548.656652,148.041188,229.828649
4201.500329,-9844.739029,0.000000,612.876398
4201.500659,-9474.636058,74.020594,76.609550
4201.500988,-10140.821405,296.082377,0.000000
4201.501318,-9770.718434,222.061783,0.000000
4201.501648,-9178.553681,296.082377,0.000000
4201.501978,-9252.574275,666.185348,0.000000
4201.502308,-9474.636058,222.061783,-229.828649
4201.502638,-9844.739029,518.144159,-612.876398
4201.502968,-9622.677246,814.226536,0.000000
4201.503298,-9992.780217,962.267725,-536.266849
4201.503628,-9918.759623,148.041188,-919.314598
4201.503958,-9548.656652,814.226536,1149.143247
4201.504288,-10658.965565,148.041188,1225.752797
4201.504618,-10658.965565,444.123565,1302.362347
4201.504947,-9474.636058,0.000000,0.000000
4201.505277,-9326.594869,148.041188,-842.705048
4201.505607,-10362.883188,740.205942,-383.047749
4201.505937,-10288.862594,148.041188,0.000000
4201.506267,-9400.615463,370.102971,0.000000
4201.506597,-8438.347739,296.082377,0.000000
4201.506927,-9918.759623,1110.308913,153.219100
4201.507257,-10658.965565,592.164754,-995.924147
4201.507587,-10510.924376,0.000000,-919.314598
4201.507917,-9474.636058,0.000000,-153.219100
4201.508247,-9178.553681,518.144159,383.047749
4201.508577,-9770.718434,74.020594,1608.800546
4201.508907,-10066.800811,370.102971,995.924147
4201.509236,-9400.615463,74.020594,766.095498
4201.509566,-9696.697840,444.123565,229.828649
4201.509896,-10510.924376,222.061783,383.047749
4201.510226,-10584.944971,148.041188,689.485948
4201.510556,-9474.636058,0.000000,842.705048
4201.510886,-8068.244768,-296.082377,919.314598
4201.511216,-9400.615463,-296.082377,0.000000
4201.511546,-9770.718434,74.020594,-536.266849
4201.511876,-10362.883188,0.000000,0.000000
4201.512206,-9104.533087,222.061783,536.266849
4201.512536,-10288.862594,222.061783,1608.800546
4201.512866,-10955.047942,518.144159,1455.581446
4201.513195,-10881.027347,-296.082377,1685.410096
4201.513525,-10066.800811,-296.082377,842.705048
4201.513855,-9474.636058,0.000000,0.000000
4201.514185,-9770.718434,666.185348,-536.266849
4201.514515,-9400.615463,0.000000,-459.657299
4201.514845,-9548.656652,148.041188,76.609550
4201.515175,-10066.800811,222.061783,1149.143247
4201.515505,-10955.047942,222.061783,536.266849
4201.515835,-10214.842000,-518.144159,-766.095498
4201.516165,-8586.388927,-1258.350101,-689.485948
4201.516495,-8586.388927,-592.164754,306.438199
4201.516825,-9992.780217,-370.102971,306.438199
4201.517154,-9844.739029,-444.123565,536.266849
4201.517484,-8956.491898,-592.164754,229.828649
4201.517814,-9474.636058,0.000000,1455.581446
4201.518144,-10584.944971,0.000000,1685.410096
4201.518474,-10955.047942,-666.185348,536.266849
4201.518804,-9400.615463,-666.185348,459.657299
4201.519134,-8586.388927,-1406.391290,153.219100
4201.519464,-9918.759623,-518.144159,459.657299
4201.519794,-9548.656652,-296.082377,-383.047749
4201.520124,-9400.615463,148.041188,153.219100
4201.520454,-9104.533087,370.102971,-76.609550
4201.520784,-10140.821405,222.061783,-766.095498
4201.521113,-10807.006753,370.102971,-1072.533697
4201.521443,-10140.821405,0.000000,-1225.752797
4201.521773,-10214.842000,444.123565,-536.266849
4201.522103,-9918.759623,740.205942,-306.438199
4201.522433,-9400.615463,296.082377,-1532.190996
4201.522763,-9104.533087,0.000000,-919.314598
4201.523093,-9252.574275,518.144159,-459.657299
4201.523423,-10436.903782,518.144159,-76.609550
4201.523753,-10362.883188,222.061783,0.000000
4201.524083,-9844.739029,592.164754,229.828649
4201.524412,-9548.656652,148.041188,383.047749
4201.524742,-9844.739029,222.061783,0.000000
4201.525072,-9696.697840,0.000000,-459.657299
4201.525402,-9178.553681,74.020594,229.828649
4201.525731,-9104.533087,222.061783,306.438199
4201.526061,-9696.697840,814.226536,689.485948
4201.526391,-10066.800811,0.000000,766.095498
4201.526721,-9030.512492,0.000000,-306.438199
4201.527050,-9474.636058,0.000000,229.828649
4201.527380,-10066.800811,814.226536,919.314598
4201.527710,-9622.677246,518.144159,995.924147
4201.528040,-9474.636058,888.247130,229.828649
4201.528369,-9770.718434,518.144159,0.000000
4201.528699,-10288.862594,444.123565,0.000000
4201.529029,-10362.883188,962.267725,1302.362347
4201.529359,-10584.944971,814.226536,766.095498
4201.529688,-10066.800811,370.102971,0.000000
4201.530018,-9474.636058,0.000000,0.000000
4201.530348,-8882.471304,-74.020594,229.828649
4201.530677,-9622.677246,222.061783,612.876398
4201.531007,-9844.739029,1036.288319,1455.581446
4201.531337,-10214.842000,0.000000,0.000000
4201.531667,-9178.553681,222.061783,0.000000
4201.531996,-9474.636058,148.041188,0.000000
4201.532326,-10140.821405,-296.082377,459.657299
4201.532656,-9770.718434,0.000000,766.095498
4201.532986,-9326.594869,148.041188,842.705048
4201.533315,-9474.636058,0.000000,536.266849
4201.533645,-9918.759623,0.000000,383.047749
4201.533975,-11029.068536,370.102971,0.000000
4201.534305,-10584.944971,148.041188,153.219100
4201.534634,-9622.677246,74.020594,383.047749
4201.534964,-9400.615463,0.000000,919.314598
4201.535294,-9992.780217,444.123565,1302.362347
4201.535623,-10140.821405,0.000000,1149.143247
4201.535953,-9844.739029,-370.102971,0.000000
4201.536283,-10362.883188,-370.102971,0.000000
4201.536613,-9992.780217,74.020594,842.705048
4201.536942,-10214.842000,74.020594,689.485948
4201.537272,-9252.574275,-296.082377,-612.876398
4201.537602,-9326.594869,-296.082377,-919.314598
4201.537932,-9918.759623,0.000000,76.609550
4201.538261,-10807.006753,518.144159,0.000000
4201.538591,-9918.759623,-814.226536,0.000000
4201.538921,-8808.450710,-592.164754,612.876398
4201.539251,-8882.471304,-1184.329507,1149.143247
4201.539580,-9696.697840,-666.185348,919.314598
4201.539910,-9844.739029,-814.226536,229.828649
4201.540240,-9548.656652,-962.267725,-153.219100
4201.540570,-9178.553681,-814.226536,0.000000
4201.540899,-8882.471304,0.000000,536.266849
4201.541229,-10658.965565,-296.082377,766.095498
4201.541559,-10140.821405,222.061783,1455.581446
4201.541888,-9696.697840,-444.123565,536.266849
4201.542218,-9770.718434,-444.123565,-76.609550
4201.542548,-9992.780217,0.000000,76.609550
4201.542878,-10362.883188,-222.061783,0.000000
4201.543207,-9474.636058,-592.164754,995.924147
4201.543537,-9400.615463,-370.102971,1225.752797
4201.543867,-9918.759623,0.000000,306.438199
4201.544197,-10214.842000,74.020594,0.000000
4201.544526,-10214.842000,0.000000,-766.095498
4201.544856,-9844.739029,0.000000,-612.876398
4201.545186,-8956.491898,0.000000,-1225.752797
4201.545516,-9696.697840,222.061783,306.438199
4201.545845,-9548.656652,-296.082377,995.924147
4201.546175,-9548.656652,148.041188,76.609550
4201.546505,-10436.903782,222.061783,-1149.143247
4201.546835,-9622.677246,-222.061783,-1378.971896
4201.547164,-9178.553681,222.061783,-536.266849
4201.547494,-9178.553681,518.144159,612.876398
4201.547824,-9770.718434,148.041188,1455.581446
4201.548153,-9474.636058,0.000000,536.266849
4201.548483,-9400.615463,148.041188,0.000000
4201.548813,-9474.636058,222.061783,-459.657299
4201.549143,-10214.842000,740.205942,76.609550
4201.549472,-9992.780217,296.082377,536.266849
4201.549802,-9696.697840,1036.288319,1072.533697
4201.550132,-9992.780217,444.123565,612.876398
4201.550462,-9918.759623,1036.288319,-919.314598
4201.550791,-9548.656652,0.000000,-1532.190996
4201.551121,-9104.533087,1036.288319,-612.876398
4201.551451,-10066.800811,814.226536,766.095498
4201.551781,-11621.233289,962.267725,1378.971896
4201.552110,-9844.739029,74.020594,306.438199
4201.552440,-8438.347739,222.061783,-536.266849
4201.552770,-9178.553681,740.205942,-306.438199
4201.553099,-11473.192101,592.164754,153.219100
4201.553429,-11547.212695,592.164754,612.876398
4201.553759,-9696.697840,0.000000,612.876398
4201.554089,-9400.615463,444.123565,459.657299
4201.554418,-9992.780217,-296.082377,766.095498
4201.554748,-9992.780217,-666.185348,0.000000
4201.555078,-8660.409521,-592.164754,0.000000
4201.555408,-8142.265362,296.082377,0.000000
4201.555737,-9178.553681,74.020594,-153.219100
4201.556067,-9400.615463,148.041188,0.000000
4201.556397,-9918.759623,296.082377,0.000000
4201.556727,-9844.739029,74.020594,995.924147
4201.557056,-10732.986159,888.247130,842.705048
4201.557386,-10362.883188,148.041188,0.000000
4201.557716,-9622.677246,222.061783,0.000000
4201.558046,-8734.430116,0.000000,76.609550
4201.558375,-9474.636058,-592.164754,-459.657299
4201.558705,-10066.800811,888.247130,0.000000
4201.559035,-9844.739029,0.000000,536.266849
4201.559364,-9844.739029,444.123565,383.047749
4201.559694,-9474.636058,592.164754,306.438199
4201.560024,-10288.862594,444.123565,0.000000
4201.560354,-10807.006753,370.102971,0.000000
4201.560683,-10732.986159,814.226536,0.000000
4201.561013,-10362.883188,518.144159,76.609550
4201.561343,-9918.759623,0.000000,-689.485948
4201.561673,-9696.697840,592.164754,-612.876398
4201.562002,-10066.800811,0.000000,76.609550
4201.562332,-10288.862594,296.082377,229.828649
4201.562662,-9474.636058,222.061783,842.705048
4201.562992,-8956.491898,222.061783,766.095498
4201.563321,-10362.883188,0.000000,1149.143247
4201.563651,-11177.109724,-148.041188,1378.971896
4201.563981,-10214.842000,-962.267725,1915.238745
4201.564310,-9178.553681,-518.144159,1532.190996
4201.564640,-9326.594869,-148.041188,919.314598
4201.564970,-8882.471304,-518.144159,689.485948
4201.565300,-9326.594869,518.144159,459.657299
4201.565629,-9474.636058,74.020594,383.047749
4201.565959,-9992.780217,-296.082377,612.876398
4201.566289,-10066.800811,-222.061783,689.485948
4201.566619,-9548.656652,0.000000,1455.581446
4201.566948,-10066.800811,0.000000,842.705048
4201.567278,-9696.697840,-74.020594,-459.657299
4201.567608,-10214.842000,-592.164754,0.000000
4201.567938,-10584.944971,-444.123565,995.924147
4201.568267,-9844.739029,-370.102971,1455.581446
4201.568597,-10140.821405,-296.082377,1608.800546
4201.568927,-9918.759623,-370.102971,995.924147
4201.569257,-9918.759623,-222.061783,612.876398
4201.569586,-10288.862594,-296.082377,229.828649
4201.569916,-10436.903782,-740.205942,-842.705048
4201.570246,-10066.800811,0.000000,-76.609550
4201.570575,-8512.368333,-222.061783,306.438199
4201.570905,-8734.430116,222.061783,76.609550
4201.571235,-8882.471304,-592.164754,-1225.752797
4201.571565,-10066.800811,-444.123565,-842.705048
4201.571894,-10140.821405,-740.205942,-229.828649
4201.572224,-9400.615463,-1184.329507,-383.047749
4201.572554,-8290.306550,-740.205942,0.000000
4201.572884,-8734.430116,-1036.288319,229.828649
4201.573213,-9104.533087,-666.185348,0.000000
4201.573543,-9178.553681,-148.041188,76.609550
4201.573873,-9844.739029,296.082377,-383.047749
4201.574203,-10510.924376,222.061783,-459.657299
4201.574532,-10807.006753,888.247130,0.000000
4201.574862,-11029.068536,296.082377,459.657299
4201.575192,-10732.986159,370.102971,-229.828649
4201.575522,-10066.800811,-592.164754,-842.705048
4201.575851,-8882.471304,-370.102971,-842.705048
4201.576181,-8808.450710,-222.061783,-76.609550
4201.576511,-9252.574275,296.082377,383.047749
4201.576840,-9918.759623,0.000000,306.438199
4201.577170,-11251.130318,592.164754,689.485948
4201.577500,-10658.965565,518.144159,766.095498
4201.577830,-10732.986159,444.123565,1072.533697
4201.578159,-9548.656652,666.185348,766.095498
4201.578489,-10066.800811,518.144159,1225.752797
4201.578819,-10066.800811,444.123565,459.657299
4201.579149,-10362.883188,148.041188,-842.705048
4201.579478,-9548.656652,0.000000,-842.705048
4201.579808,-9104.533087,74.020594,306.438199
4201.580138,-9178.553681,592.164754,689.485948
4201.580468,-9326.594869,444.123565,383.047749
4201.580797,-8808.450710,444.123565,-459.657299
4201.581127,-9178.553681,814.226536,-766.095498
4201.581457,-10510.924376,740.205942,0.000000
4201.581786,-10362.883188,518.144159,1072.533697
4201.582116,-9992.780217,740.205942,1149.143247
4201.582446,-9474.636058,1554.432478,919.314598
4201.582776,-9474.636058,814.226536,459.657299
4201.583105,-10140.821405,1036.288319,-383.047749
4201.583435,-10362.883188,666.185348,-612.876398
4201.583765,-9474.636058,888.247130,153.219100
4201.584095,-9030.512492,888.247130,-306.438199
4201.584424,-9178.553681,1110.308913,-766.095498
4201.584754,-10066.800811,962.267725,-919.314598
4201.585084,-9918.759623,0.000000,-1685.410096
4201.585414,-9474.636058,0.000000,-1302.362347
4201.585743,-9474.636058,296.082377,76.609550
4201.586073,-9770.718434,1036.288319,1915.238745
4201.586403,-10955.047942,444.123565,1762.019645
4201.586733,-11325.150913,74.020594,306.438199
4201.587062,-9696.697840,-296.082377,-536.266849
4201.587392,-9622.677246,0.000000,0.000000
4201.587722,-9252.574275,-592.164754,689.485948
4201.588051,-8660.409521,0.000000,1225.752797
4201.588381,-9474.636058,74.020594,459.657299
4201.588711,-9548.656652,0.000000,-306.438199
4201.589041,-10584.944971,222.061783,-689.485948
4201.589370,-10066.800811,74.020594,76.609550
4201.589700,-9474.636058,-444.123565,689.485948
4201.590030,-9326.594869,-444.123565,1608.800546
4201.590360,-9474.636058,-1110.308913,1915.238745
4201.590689,-9770.718434,-1258.350101,1302.362347
4201.591019,-9474.636058,-740.205942,536.266849
4201.591349,-9844.739029,-370.102971,612.876398
4201.591679,-9548.656652,-814.226536,153.219100
4201.592008,-9622.677246,74.020594,766.095498
4201.592338,-9992.780217,-370.102971,1072.533697
4201.592668,-10288.862594,-444.123565,842.705048
4201.592997,-10436.903782,222.061783,-76.609550
4201.593327,-10140.821405,-518.144159,-919.314598
4201.593657,-10362.883188,-222.061783,-383.047749
4201.593987,-9622.677246,-962.267725,229.828649
4201.594316,-9918.759623,0.000000,766.095498
4201.594646,-9696.697840,-518.144159,612.876398
4201.594976,-8956.491898,-592.164754,-612.876398
4201.595306,-8882.471304,-814.226536,-919.314598
4201.595635,-9326.594869,-370.102971,-612.876398
4201.595965,-9696.697840,-444.123565,306.438199
4201.596295,-10510.924376,-740.205942,306.438199
4201.596625,-9696.697840,-592.164754,229.828649
4201.596954,-9918.759623,-814.226536,612.876398
4201.597284,-9770.718434,-296.082377,842.705048
4201.597614,-9770.718434,0.000000,612.876398
4201.597944,-9918.759623,518.144159,153.219100
4201.598273,-9622.677246,370.102971,-459.657299
4201.598603,-9992.780217,74.020594,-383.047749
4201.598933,-10214.842000,148.041188,229.828649
4201.599262,-10362.883188,0.000000,229.828649
4201.599592,-9992.780217,0.000000,459.657299
4201.599922,-9918.759623,-74.020594,612.876398
4201.600252,-9770.718434,-148.041188,306.438199
4201.600581,-10288.862594,-222.061783,612.876398
4201.600911,-9770.718434,666.185348,842.705048
4201.601241,-10140.821405,74.020594,459.657299
4201.601571,-9992.780217,888.247130,919.314598
4201.601900,-9844.739029,518.144159,842.705048
4201.602230,-10732.986159,518.144159,689.485948
4201.602560,-10066.800811,0.000000,0.000000
4201.602890,-8734.430116,-592.164754,0.000000
4201.603219,-8512.368333,518.144159,612.876398
4201.603549,-9030.512492,222.061783,536.266849
4201.603879,-9622.677246,-444.123565,153.219100
4201.604209,-9696.697840,0.000000,-383.047749
4201.604538,-9770.718434,0.000000,-612.876398
4201.604868,-9844.739029,0.000000,689.485948
4201.605198,-9474.636058,518.144159,1838.629195
4201.605527,-9326.594869,74.020594,1378.971896
4201.605857,-9326.594869,222.061783,76.609550
4201.606187,-9474.636058,222.061783,-842.705048
4201.606517,-9474.636058,-296.082377,-459.657299
4201.606846,-9918.759623,814.226536,229.828649
4201.607176,-9030.512492,222.061783,229.828649
4201.607506,-9252.574275,0.000000,-536.266849
4201.607836,-9918.759623,814.226536,-766.095498
4201.608165,-10955.047942,-222.061783,-995.924147
4201.608495,-10584.944971,-148.041188,-766.095498
4201.608825,-9178.553681,888.247130,-76.609550
4201.609155,-8512.368333,370.102971,-995.924147
4201.609484,-9400.615463,1406.391290,76.609550
4201.609814,-11029.068536,1258.350101,-229.828649
4201.610144,-11843.295072,444.123565,-842.705048
4201.610473,-10732.986159,370.102971,-919.314598
4201.610803,-10066.800811,0.000000,0.000000
4201.611133,-8808.450710,-518.144159,689.485948
4201.611463,-9622.677246,-222.061783,1762.019645
4201.611792,-10140.821405,518.144159,842.705048
4201.612122,-9770.718434,0.000000,-1302.362347
4201.612452,-9918.759623,444.123565,-1532.190996
4201.612782,-9548.656652,74.020594,612.876398
4201.613111,-10584.944971,814.226536,2145.067394
4201.613441,-10066.800811,592.164754,1149.143247
4201.613771,-9992.780217,-740.205942,459.657299
4201.614101,-9252.574275,-592.164754,0.000000
4201.614430,-9474.636058,-888.247130,-306.438199
4201.614760,-10066.800811,-370.102971,536.266849
4201.615090,-8956.491898,74.020594,1149.143247
4201.615420,-8660.409521,74.020594,536.266849
4201.615749,-9104.533087,0.000000,306.438199
4201.616079,-10955.047942,-148.041188,1072.533697
4201.616409,-10881.027347,740.205942,1455.581446
4201.616738,-9770.718434,148.041188,919.314598
4201.617068,-9474.636058,222.061783,-153.219100
4201.617398,-8660.409521,0.000000,-229.828649
4201.617728,-9252.574275,740.205942,0.000000
4201.618057,-9696.697840,148.041188,-459.657299
4201.618387,-10140.821405,592.164754,-1072.533697
4201.618717,-9400.615463,0.000000,-1455.581446
4201.619047,-8734.430116,666.185348,-383.047749
4201.619376,-9400.615463,518.144159,842.705048
4201.619706,-10955.047942,592.164754,383.047749
4201.620036,-10807.006753,-296.082377,0.000000
4201.620366,-9326.594869,74.020594,-383.047749
4201.620695,-8882.471304,444.123565,76.609550
4201.621025,-9844.739029,222.061783,536.266849
4201.621355,-10510.924376,0.000000,383.047749
4201.621685,-10066.800811,-222.061783,536.266849
4201.622014,-8882.471304,222.061783,0.000000
4201.622344,-9770.718434,222.061783,995.924147
4201.622674,-10436.903782,518.144159,1072.533697
4201.623003,-10140.821405,444.123565,689.485948
4201.623333,-9178.553681,888.247130,-1072.533697
4201.623663,-9770.718434,148.041188,-766.095498
4201.623993,-11251.130318,592.164754,153.219100
4201.624323,-10881.027347,370.102971,1149.143247
4201.624652,-9696.697840,444.123565,0.000000
4201.624982,-9696.697840,370.102971,-1302.362347
4201.625312,-9992.780217,370.102971,-919.314598
4201.625642,-10214.842000,74.020594,-306.438199
4201.625972,-9992.780217,-296.082377,0.000000
4201.626301,-8882.471304,222.061783,536.266849
4201.626631,-9400.615463,0.000000,612.876398
4201.626961,-9844.739029,0.000000,1072.533697
4201.627291,-9696.697840,0.000000,76.609550
4201.627620,-8956.491898,-518.144159,0.000000
4201.627950,-9548.656652,-296.082377,-229.828649
4201.628280,-9918.759623,-370.102971,306.438199
4201.628610,-10066.800811,0.000000,1685.410096
4201.628940,-9696.697840,-296.082377,1225.752797
4201.629269,-10288.862594,-592.164754,536.266849
4201.629599,-9622.677246,-370.102971,-1072.533697
4201.629929,-9548.656652,-74.020594,-1302.362347
4201.630259,-9474.636058,74.020594,459.657299
4201.630588,-10436.903782,814.226536,1991.848295
4201.630918,-10288.862594,592.164754,1225.752797
4201.631248,-10807.006753,1110.308913,-306.438199
4201.631578,-9992.780217,74.020594,-2221.676944
4201.631908,-9104.533087,0.000000,-1608.800546
4201.632237,-9400.615463,-518.144159,-689.485948
4201.632567,-9918.759623,0.000000,1455.581446
4201.632897,-9474.636058,0.000000,2298.286494
4201.633227,-9474.636058,-666.185348,1608.800546
4201.633557,-10510.924376,-592.164754,153.219100
4201.633886,-10807.006753,-444.123565,0.000000
4201.634216,-9548.656652,-296.082377,-459.657299
4201.634546,-8660.409521,-148.041188,459.657299
4201.634876,-8586.388927,370.102971,1149.143247
4201.635205,-9918.759623,0.000000,1608.800546
4201.635535,-10288.862594,74.020594,153.219100
4201.635865,-10658.965565,74.020594,-1072.533697
4201.636195,-10510.924376,74.020594,-919.314598
4201.636525,-8882.471304,148.041188,536.266849
4201.636854,-8882.471304,-666.185348,1608.800546
4201.637184,-10214.842000,0.000000,1991.848295
4201.637514,-10288.862594,-148.041188,1915.238745
4201.637844,-9992.780217,-222.061783,-536.266849
4201.638174,-8956.491898,370.102971,-459.657299
4201.638503,-9474.636058,592.164754,459.657299
4201.638833,-11103.089130,888.247130,2298.286494
4201.639163,-10584.944971,444.123565,1838.629195
4201.639493,-9770.718434,-148.041188,229.828649
4201.639822,-9252.574275,-518.144159,-383.047749
4201.640152,-10288.862594,222.061783,0.000000
4201.640482,-9400.615463,444.123565,0.000000
4201.640812,-9030.512492,518.144159,-383.047749
4201.641142,-9252.574275,370.102971,-842.705048
4201.641471,-9548.656652,148.041188,-766.095498
4201.641801,-10066.800811,444.123565,612.876398
4201.642131,-9918.759623,444.123565,1072.533697
4201.642461,-9844.739029,222.061783,612.876398
4201.642790,-9474.636058,0.000000,0.000000
4201.643120,-9400.615463,-740.205942,0.000000
4201.643450,-10288.862594,-444.123565,306.438199
4201.643780,-10436.903782,-666.185348,76.609550
4201.644110,-9326.594869,-222.061783,0.000000
4201.644439,-8734.430116,296.082377,383.047749
4201.644769,-8438.347739,592.164754,-229.828649
4201.645099,-9474.636058,518.144159,-306.438199
4201.645429,-10658.965565,74.020594,-459.657299
4201.645759,-10658.965565,0.000000,-612.876398
4201.646088,-9844.739029,0.000000,-383.047749
4201.646418,-9696.697840,0.000000,153.219100
4201.646748,-9696.697840,-740.205942,766.095498
4201.647078,-9696.697840,-444.123565,1225.752797
4201.647407,-9178.553681,-888.247130,459.657299
4201.647737,-9696.697840,-444.123565,-306.438199
4201.648067,-9696.697840,-592.164754,612.876398
4201.648397,-9844.739029,74.020594,1608.800546
4201.648727,-10288.862594,0.000000,1685.410096
4201.649056,-9918.759623,148.041188,459.657299
4201.649386,-9844.739029,0.000000,-76.609550
4201.649716,-9770.718434,148.041188,-76.609550
4201.650046,-10140.821405,296.082377,-459.657299
4201.650376,-10807.006753,296.082377,-229.828649
4201.650705,-9474.636058,0.000000,-76.609550
4201.651035,-10214.842000,-148.041188,153.219100
4201.651365,-9844.739029,444.123565,153.219100
4201.651695,-9326.594869,740.205942,459.657299
4201.652024,-9918.759623,888.247130,-689.485948
4201.652354,-9474.636058,666.185348,-689.485948
4201.652684,-10140.821405,592.164754,-229.828649
4201.653014,-10881.027347,740.205942,76.609550
4201.653344,-10510.924376,74.020594,689.485948
4201.653673,-9992.780217,148.041188,229.828649
4201.654003,-8882.471304,0.000000,229.828649
4201.654333,-8956.491898,0.000000,0.000000
4201.654663,-9548.656652,-296.082377,919.314598
4201.654992,-9992.780217,-592.164754,995.924147
4201.655322,-9252.574275,-444.123565,612.876398
4201.655652,-8660.409521,-296.082377,76.609550
4201.655982,-9252.574275,296.082377,1378.971896
4201.656312,-9918.759623,74.020594,1149.143247
4201.656641,-10732.986159,888.247130,995.924147
4201.656971,-10955.047942,0.000000,0.000000
4201.657301,-10140.821405,0.000000,-153.219100
4201.657631,-9622.677246,222.061783,306.438199
4201.657961,-9326.594869,1110.308913,536.266849
4201.658290,-9178.553681,222.061783,-842.705048
4201.658620,-9474.636058,0.000000,-1378.971896
4201.658950,-9696.697840,0.000000,-459.657299
4201.659280,-10510.924376,-296.082377,306.438199
4201.659609,-9844.739029,0.000000,459.657299
4201.659939,-9918.759623,0.000000,995.924147
4201.660269,-9474.636058,-148.041188,612.876398
4201.660599,-9400.615463,-148.041188,0.000000
4201.660929,-9400.615463,0.000000,0.000000
4201.661258,-10881.027347,74.020594,995.924147
4201.661588,-10436.903782,444.123565,2221.676944
4201.661918,-9548.656652,-296.082377,1455.581446
4201.662248,-8956.491898,-444.123565,76.609550
4201.662578,-9252.574275,-888.247130,306.438199
4201.662907,-9992.780217,-518.144159,0.000000
4201.663237,-9844.739029,-1406.391290,-383.047749
4201.663567,-8586.388927,0.000000,0.000000
4201.663897,-9104.533087,148.041188,766.095498
4201.664226,-10510.924376,296.082377,689.485948
4201.664556,-10881.027347,592.164754,536.266849
4201.664886,-10955.047942,0.000000,229.828649
4201.665216,-10436.903782,74.020594,0.000000
4201.665546,-9400.615463,-370.102971,-536.266849
4201.665875,-9548.656652,148.041188,689.485948
4201.666205,-9844.739029,296.082377,689.485948
4201.666535,-10510.924376,0.000000,-306.438199
4201.666865,-10510.924376,0.000000,-1302.362347
4201.667195,-9104.533087,-296.082377,-1915.238745
4201.667524,-8290.306550,222.061783,-1378.971896
4201.667854,-8512.368333,0.000000,0.000000
4201.668184,-9770.718434,0.000000,995.924147
4201.668514,-10214.842000,74.020594,1762.019645
4201.668843,-9918.759623,-814.226536,383.047749
4201.669173,-10362.883188,0.000000,-919.314598
4201.669503,-10510.924376,-370.102971,-612.876398
4201.669833,-10066.800811,0.000000,459.657299
4201.670163,-8808.450710,0.000000,1225.752797
4201.670492,-9400.615463,0.000000,1302.362347
4201.670822,-9844.739029,518.144159,689.485948
4201.671152,-10214.842000,518.144159,153.219100
4201.671482,-10732.986159,888.247130,76.609550
4201.671811,-10140.821405,222.061783,153.219100
4201.672141,-9548.656652,370.102971,153.219100
4201.672471,-9474.636058,-296.082377,76.609550
4201.672801,-9622.677246,0.000000,306.438199
4201.673131,-9992.780217,-296.082377,383.047749
4201.673460,-9918.759623,222.061783,0.000000
4201.673790,-8956.491898,222.061783,459.657299
4201.674120,-9400.615463,740.205942,459.657299
4201.674450,-9770.718434,296.082377,1072.533697
4201.674780,-10362.883188,370.102971,1991.848295
4201.675109,-9770.718434,0.000000,1149.143247
4201.675439,-9548.656652,0.000000,229.828649
4201.675769,-9696.697840,-444.123565,-1225.752797
4201.676099,-9400.615463,148.041188,-766.095498
4201.676428,-8586.388927,-444.123565,-459.657299
4201.676758,-8734.430116,148.041188,0.000000
4201.677088,-9918.759623,444.123565,612.876398
4201.677418,-11251.130318,592.164754,842.705048
4201.677748,-10732.986159,518.144159,229.828649
4201.678077,-9104.533087,0.000000,0.000000
4201.678407,-9474.636058,-370.102971,0.000000
4201.678737,-9696.697840,0.000000,459.657299
4201.679067,-9844.739029,0.000000,459.657299
4201.679397,-8660.409521,666.185348,-766.095498
4201.679726,-10362.883188,370.102971,-995.924147
4201.680056,-11399.171507,370.102971,-842.705048
4201.680386,-10510.924376,-222.061783,-383.047749
4201.680716,-10214.842000,148.041188,0.000000
4201.681045,-9252.574275,0.000000,383.047749
4201.681375,-9178.553681,296.082377,536.266849
4201.681705,-8956.491898,0.000000,0.000000
4201.682035,-9326.594869,0.000000,-383.047749
4201.682365,-10140.821405,0.000000,-306.438199
4201.682694,-10362.883188,0.000000,459.657299
4201.683024,-10362.883188,444.123565,842.705048
4201.683354,-10288.862594,-370.102971,995.924147
4201.683684,-9548.656652,0.000000,0.000000
4201.684013,-9474.636058,-518.144159,76.609550
4201.684343,-9918.759623,370.102971,459.657299
4201.684673,-9104.533087,0.000000,919.314598
4201.685003,-9770.718434,296.082377,919.314598
4201.685333,-10732.986159,296.082377,766.095498
4201.685662,-10807.006753,74.020594,229.828649
4201.685992,-10436.903782,-148.041188,0.000000
4201.686322,-10140.821405,0.000000,-459.657299
4201.686652,-8956.491898,0.000000,-459.657299
4201.686982,-9326.594869,370.102971,-689.485948
4201.687311,-9178.553681,0.000000,-1149.143247
4201.687641,-9548.656652,222.061783,153.219100
4201.687971,-10140.821405,222.061783,919.314598
4201.688301,-10140.821405,0.000000,0.000000
4201.688630,-9992.780217,-370.102971,76.609550
4201.688960,-9474.636058,-444.123565,612.876398
4201.689290,-9548.656652,-666.185348,919.314598
4201.689620,-9696.697840,-148.041188,1302.362347
4201.689950,-9696.697840,0.000000,689.485948
4201.690279,-9844.739029,370.102971,-306.438199
4201.690609,-9400.615463,0.000000,0.000000
4201.690939,-9918.759623,0.000000,0.000000
4201.691269,-10214.842000,0.000000,306.438199
4201.691599,-10066.800811,-666.185348,995.924147
4201.691928,-9252.574275,-740.205942,1072.533697
4201.692258,-9326.594869,-370.102971,612.876398
4201.692588,-9326.594869,0.000000,0.000000
4201.692918,-9326.594869,-74.020594,0.000000
4201.693247,-9918.759623,518.144159,306.438199
4201.693577,-9844.739029,296.082377,1225.752797
4201.693907,-11177.109724,222.061783,1225.752797
4201.694237,-10288.862594,296.082377,383.047749
4201.694567,-9030.512492,-148.041188,153.219100
4201.694896,-9178.553681,0.000000,-1302.362347
4201.695226,-9474.636058,296.082377,-1225.752797
4201.695556,-9770.718434,-814.226536,0.000000
4201.695886,-8808.450710,-74.020594,995.924147
4201.696215,-8808.450710,222.061783,1608.800546
4201.696545,-11177.109724,296.082377,995.924147
4201.696875,-11103.089130,0.000000,0.000000
4201.697205,-9992.780217,0.000000,0.000000
4201.697535,-9770.718434,222.061783,306.438199
4201.697864,-8882.471304,444.123565,153.219100
4201.698194,-8956.491898,1036.288319,459.657299
4201.698524,-9326.594869,888.247130,-229.828649
4201.698854,-10288.862594,1406.391290,-1225.752797
4201.699184,-11399.171507,1110.308913,-2298.286494
4201.699513,-10658.965565,666.185348,-1685.410096
4201.699843,-9622.677246,296.082377,-689.485948
4201.700173,-9178.553681,0.000000,1149.143247
4201.700503,-9474.636058,962.267725,1378.971896
4201.700832,-10066.800811,592.164754,229.828649
4201.701162,-9548.656652,592.164754,-995.924147
4201.701492,-10584.944971,370.102971,612.876398
4201.701822,-11029.068536,222.061783,1838.629195
4201.702152,-10066.800811,0.000000,1991.848295
4201.702481,-9326.594869,0.000000,766.095498
4201.702811,-8438.347739,222.061783,0.000000
4201.703141,-9178.553681,74.020594,-536.266849
4201.703471,-10584.944971,444.123565,-842.705048
4201.703801,-9918.759623,148.041188,306.438199
4201.704130,-9770.718434,592.164754,1149.143247
4201.704460,-9918.759623,518.144159,612.876398
4201.704790,-9918.759623,0.000000,0.000000
4201.705120,-9992.780217,0.000000,153.219100
4201.705449,-9400.615463,0.000000,689.485948
4201.705779,-9548.656652,-444.123565,766.095498
4201.706109,-9400.615463,0.000000,766.095498
4201.706439,-9548.656652,148.041188,1225.752797
4201.706769,-10066.800811,0.000000,76.609550
4201.707098,-10362.883188,-148.041188,-689.485948
4201.707428,-10066.800811,-666.185348,0.000000
4201.707758,-9474.636058,-740.205942,1072.533697
4201.708088,-8364.327145,0.000000,1532.190996
4201.708418,-9400.615463,0.000000,1149.143247
4201.708747,-9770.718434,-222.061783,-229.828649
4201.709077,-9474.636058,-962.267725,-612.876398
4201.709407,-10584.944971,-370.102971,0.000000
4201.709737,-10658.965565,-370.102971,842.705048
4201.710066,-10584.944971,-444.123565,1608.800546
4201.710396,-8882.471304,-888.247130,919.314598
4201.710726,-8956.491898,-666.185348,1225.752797
4201.711056,-10288.862594,-518.144159,919.314598
4201.711386,-9844.739029,-518.144159,536.266849
4201.711715,-9178.553681,-370.102971,0.000000
4201.712045,-9178.553681,222.061783,153.219100
4201.712375,-9696.697840,74.020594,229.828649
4201.712705,-11547.212695,0.000000,306.438199
4201.713034,-10732.986159,444.123565,-1072.533697
4201.713364,-8956.491898,-592.164754,-1302.362347
4201.713694,-9030.512492,296.082377,-1302.362347
4201.714024,-9992.780217,-296.082377,76.609550
4201.714354,-11621.233289,-296.082377,1991.848295
4201.714683,-10214.842000,0.000000,842.705048
4201.715013,-9104.533087,-814.226536,-842.705048
4201.715343,-10066.800811,-518.144159,-612.876398
4201.715673,-10288.862594,-74.020594,689.485948
4201.716003,-9696.697840,0.000000,1225.752797
4201.716332,-9252.574275,74.020594,612.876398
4201.716662,-9844.739029,444.123565,0.000000
4201.716992,-10584.944971,-370.102971,-383.047749
4201.717322,-10362.883188,0.000000,-919.314598
4201.717651,-9400.615463,0.000000,0.000000
4201.717981,-9252.574275,0.000000,459.657299
4201.718311,-9548.656652,-148.041188,153.219100
4201.718641,-9178.553681,-370.102971,76.609550
4201.718971,-9696.697840,-148.041188,766.095498
4201.719300,-10955.047942,444.123565,1149.143247
4201.719630,-10807.006753,-148.041188,459.657299
4201.719960,-9104.533087,444.123565,612.876398
4201.720290,-9400.615463,592.164754,1378.971896
4201.720620,-9918.759623,666.185348,689.485948
4201.720949,-10658.965565,222.061783,76.609550
4201.721279,-9622.677246,148.041188,-1608.800546
4201.721609,-7846.182985,814.226536,-1608.800546
4201.721939,-9992.780217,740.205942,229.828649
4201.722268,-10288.862594,296.082377,306.438199
4201.722598,-9326.594869,0.000000,153.219100
4201.722928,-8290.306550,-222.061783,-229.828649
4201.723258,-8882.471304,74.020594,76.609550
4201.723588,-10732.986159,740.205942,306.438199
4201.723917,-10658.965565,444.123565,612.876398
4201.724247,-9844.739029,0.000000,766.095498
4201.724577,-9548.656652,148.041188,1149.143247
4201.724907,-10436.903782,148.041188,1378.971896
4201.725236,-9622.677246,-518.144159,1455.581446
4201.725566,-9104.533087,0.000000,766.095498
4201.725896,-9548.656652,666.185348,-766.095498
4201.726226,-9474.636058,740.205942,-1455.581446
4201.726556,-10066.800811,1110.308913,-536.266849
4201.726886,-9548.656652,666.185348,-306.438199
4201.727216,-9548.656652,888.247130,-229.828649
4201.727545,-10066.800811,888.247130,-306.438199
4201.727875,-10362.883188,222.061783,-919.314598
4201.728205,-9548.656652,0.000000,-919.314598
4201.728535,-9548.656652,-370.102971,0.000000
4201.728865,-10510.924376,74.020594,612.876398
4201.729195,-10288.862594,-222.061783,459.657299
4201.729524,-8956.491898,518.144159,766.095498
4201.729854,-9326.594869,592.164754,842.705048
4201.730184,-11103.089130,592.164754,1149.143247
4201.730514,-11547.212695,370.102971,1149.143247
4201.730844,-10881.027347,0.000000,153.219100
4201.731174,-9992.780217,-592.164754,-229.828649
4201.731503,-9252.574275,-74.020594,-689.485948
4201.731833,-8882.471304,-148.041188,0.000000
4201.732163,-8808.450710,148.041188,-612.876398
4201.732493,-9252.574275,0.000000,-306.438199
4201.732823,-9770.718434,518.144159,459.657299
4201.733153,-10584.944971,518.144159,536.266849
4201.733482,-10881.027347,888.247130,153.219100
4201.733812,-10584.944971,-148.041188,0.000000
4201.734142,-10436.903782,-296.082377,536.266849
4201.734472,-9104.533087,-740.205942,1149.143247
4201.734802,-8808.450710,-814.226536,229.828649
4201.735132,-9104.533087,-74.020594,536.266849
4201.735462,-9770.718434,296.082377,995.924147
4201.735791,-10066.800811,222.061783,229.828649
4201.736121,-9696.697840,370.102971,-689.485948
4201.736451,-9770.718434,-148.041188,-229.828649
4201.736781,-9474.636058,-592.164754,306.438199
4201.737111,-9326.594869,0.000000,306.438199
4201.737441,-9252.574275,-888.247130,-76.609550
4201.737770,-9474.636058,-148.041188,-689.485948
4201.738100,-9548.656652,-592.164754,76.609550
4201.738430,-9844.739029,-74.020594,689.485948
4201.738760,-8882.471304,0.000000,919.314598
4201.739090,-9992.780217,1036.288319,842.705048
4201.739420,-11029.068536,666.185348,919.314598
4201.739749,-10732.986159,-296.082377,76.609550
4201.740079,-10288.862594,-148.041188,0.000000
4201.740409,-9326.594869,-518.144159,612.876398
4201.740739,-10288.862594,0.000000,459.657299
4201.741069,-8586.388927,-962.267725,76.609550
4201.741399,-7920.203579,0.000000,153.219100
4201.741729,-9400.615463,0.000000,842.705048
4201.742058,-11769.274478,518.144159,1072.533697
4201.742388,-11325.150913,148.041188,995.924147
4201.742718,-9770.718434,370.102971,229.828649
4201.743048,-9918.759623,296.082377,612.876398
4201.743378,-9770.718434,-148.041188,842.705048
4201.743708,-9696.697840,-888.247130,689.485948
4201.744037,-9178.553681,-370.102971,536.266849
4201.744367,-9326.594869,-296.082377,0.000000
4201.744697,-9548.656652,148.041188,-306.438199
4201.745027,-10140.821405,222.061783,766.095498
4201.745357,-9770.718434,370.102971,306.438199
4201.745687,-9696.697840,-370.102971,-306.438199
4201.746016,-10066.800811,444.123565,-306.438199
4201.746346,-9474.636058,0.000000,919.314598
4201.746676,-9474.636058,-296.082377,459.657299
4201.747006,-9400.615463,0.000000,-153.219100
4201.747336,-10066.800811,-148.041188,-383.047749
4201.747666,-10066.800811,444.123565,-459.657299
4201.747995,-9622.677246,222.061783,-612.876398
4201.748325,-9844.739029,-296.082377,306.438199
4201.748655,-9252.574275,0.000000,383.047749
4201.748985,-8438.347739,74.020594,-153.219100
4201.749315,-9252.574275,296.082377,-306.438199
4201.749645,-10732.986159,592.164754,-536.266849
4201.749975,-10955.047942,0.000000,383.047749
4201.750304,-9548.656652,296.082377,766.095498
4201.750634,-9252.574275,0.000000,689.485948
4201.750964,-9400.615463,74.020594,612.876398
4201.751294,-9474.636058,666.185348,536.266849
4201.751624,-9622.677246,74.020594,0.000000
4201.751954,-9252.574275,148.041188,-995.924147
4201.752283,-9548.656652,444.123565,-766.095498
4201.752613,-10362.883188,222.061783,229.828649
4201.752943,-9992.780217,666.185348,995.924147
4201.753273,-9400.615463,518.144159,153.219100
4201.753603,-9474.636058,296.082377,-689.485948
4201.753933,-9992.780217,0.000000,-306.438199
4201.754262,-10066.800811,518.144159,612.876398
4201.754592,-10214.842000,1184.329507,1762.019645
4201.754922,-10955.047942,1184.329507,383.047749
4201.755252,-10288.862594,666.185348,-536.266849
4201.755582,-9696.697840,370.102971,-536.266849
4201.755912,-9622.677246,148.041188,-76.609550
4201.756241,-10140.821405,296.082377,76.609550
4201.756571,-9326.594869,148.041188,229.828649
4201.756901,-8142.265362,0.000000,-306.438199
4201.757231,-8438.347739,-222.061783,153.219100
4201.757561,-10881.027347,444.123565,842.705048
4201.757891,-11473.192101,148.041188,459.657299
4201.758221,-9474.636058,0.000000,153.219100
4201.758550,-7698.141797,-740.205942,-536.266849
4201.758880,-8586.388927,-148.041188,1149.143247
4201.759210,-9844.739029,-222.061783,2068.457845
4201.759540,-10214.842000,-222.061783,1991.848295
4201.759870,-9622.677246,-518.144159,842.705048
4201.760200,-9474.636058,888.247130,0.000000
4201.760529,-9474.636058,814.226536,-689.485948
4201.760859,-9918.759623,666.185348,-689.485948
4201.761189,-10436.903782,518.144159,-536.266849
4201.761519,-10214.842000,148.041188,-76.609550
4201.761849,-9992.780217,74.020594,-919.314598
4201.762179,-9696.697840,666.185348,-612.876398
4201.762508,-9622.677246,148.041188,-459.657299
4201.762838,-9474.636058,888.247130,-612.876398
4201.763168,-9548.656652,222.061783,-612.876398
4201.763498,-11103.089130,296.082377,459.657299
4201.763828,-11177.109724,0.000000,766.095498
4201.764158,-9474.636058,-370.102971,1149.143247
4201.764487,-9104.533087,-370.102971,1072.533697
4201.764817,-9696.697840,222.061783,536.266849
4201.765147,-9696.697840,-222.061783,842.705048
4201.765477,-10584.944971,-370.102971,612.876398
4201.765807,-9844.739029,-444.123565,153.219100
4201.766137,-10362.883188,-888.247130,-536.266849
4201.766467,-9252.574275,-444.123565,0.000000
4201.766796,-8734.430116,-444.123565,689.485948
4201.767126,-9326.594869,-222.061783,459.657299
4201.767456,-10214.842000,74.020594,459.657299
4201.767786,-10066.800811,-592.164754,306.438199
4201.768116,-9918.759623,-148.041188,459.657299
4201.768446,-9622.677246,518.144159,1225.752797
4201.768775,-10881.027347,-518.144159,2451.505594
4201.769105,-10807.006753,-740.205942,1532.190996
4201.769435,-9326.594869,-1184.329507,459.657299
4201.769765,-7772.162391,-1184.329507,0.000000
4201.770095,-8956.491898,-444.123565,766.095498
4201.770425,-10140.821405,-370.102971,1225.752797
4201.770754,-10140.821405,0.000000,1072.533697
4201.771084,-9474.636058,0.000000,0.000000
4201.771414,-9548.656652,-666.185348,-229.828649
4201.771744,-10288.862594,-814.226536,612.876398
4201.772074,-9770.718434,-1110.308913,1072.533697
4201.772404,-9104.533087,-592.164754,689.485948
4201.772733,-8734.430116,-296.082377,459.657299
4201.773063,-9622.677246,-666.185348,76.609550
4201.773393,-10288.862594,-296.082377,383.047749
4201.773723,-10584.944971,0.000000,612.876398
4201.774053,-10214.842000,74.020594,0.000000
4201.774383,-9992.780217,-222.061783,-919.314598
4201.774713,-8734.430116,-592.164754,-766.095498
4201.775042,-8956.491898,-296.082377,536.266849
4201.775372,-10288.862594,296.082377,1149.143247
4201.775702,-10955.047942,0.000000,306.438199
4201.776032,-10214.842000,370.102971,153.219100
4201.776362,-9030.512492,666.185348,-689.485948
4201.776692,-9622.677246,74.020594,-1072.533697
4201.777021,-10510.924376,0.000000,76.609550
4201.777351,-9770.718434,888.247130,383.047749
4201.777681,-9548.656652,666.185348,153.219100
4201.778011,-9770.718434,962.267725,-306.438199
4201.778341,-10658.965565,1036.288319,-1149.143247
4201.778671,-10066.800811,1332.370696,-1302.362347
4201.779000,-9474.636058,1110.308913,-842.705048
4201.779330,-9474.636058,0.000000,-383.047749
4201.779660,-9992.780217,740.205942,1149.143247
4201.779990,-10140.821405,740.205942,1225.752797
4201.780320,-10584.944971,518.144159,689.485948
4201.780650,-9474.636058,148.041188,-306.438199
4201.780979,-9844.739029,0.000000,229.828649
4201.781309,-9844.739029,148.041188,1378.971896
4201.781639,-9844.739029,370.102971,1838.629195
4201.781969,-9622.677246,962.267725,1302.362347
4201.782299,-9104.533087,222.061783,0.000000
4201.782629,-9104.533087,740.205942,-612.876398
4201.782959,-9178.553681,296.082377,76.609550
4201.783288,-10584.944971,518.144159,0.000000
4201.783618,-10288.862594,444.123565,76.609550
4201.783948,-9178.553681,-74.020594,76.609550
4201.784278,-7920.203579,0.000000,0.000000
4201.784608,-9326.594869,-222.061783,306.438199
4201.784938,-10510.924376,-518.144159,1225.752797
4201.785267,-9474.636058,222.061783,995.924147
4201.785597,-8364.327145,444.123565,153.219100
4201.785927,-9400.615463,518.144159,459.657299
4201.786257,-10362.883188,888.247130,766.095498
4201.786587,-11251.130318,370.102971,459.657299
4201.786917,-10955.047942,1184.329507,-459.657299
4201.787246,-8956.491898,222.061783,-2068.457845
4201.787576,-8438.347739,296.082377,-1838.629195
4201.787906,-9474.636058,444.123565,-842.705048
4201.788236,-10732.986159,148.041188,-689.485948
4201.788566,-9178.553681,-296.082377,-689.485948
4201.788896,-8068.244768,-370.102971,-995.924147
4201.789225,-8956.491898,-148.041188,229.828649
4201.789555,-10436.903782,0.000000,1378.971896
4201.789885,-11991.336260,666.185348,766.095498
4201.790215,-10288.862594,74.020594,0.000000
4201.790545,-8882.471304,74.020594,-1072.533697
4201.790875,-9474.636058,0.000000,-383.047749
4201.791205,-11029.068536,444.123565,383.047749
4201.791534,-10510.924376,0.000000,0.000000
4201.791864,-9178.553681,-222.061783,-995.924147
4201.792194,-8216.285956,-444.123565,-1072.533697
4201.792524,-9474.636058,-1036.288319,-76.609550
4201.792854,-10658.965565,-296.082377,2298.286494
4201.793184,-9992.780217,0.000000,2987.772442
4201.793513,-9844.739029,-666.185348,1838.629195
4201.793843,-9622.677246,-370.102971,689.485948
4201.794173,-10807.006753,-370.102971,766.095498
4201.794503,-11991.336260,222.061783,919.314598
4201.794833,-10066.800811,444.123565,229.828649
4201.795163,-9400.615463,-444.123565,-306.438199
4201.795492,-8068.244768,0.000000,0.000000
4201.795822,-9326.594869,-222.061783,1455.581446
4201.796152,-10732.986159,74.020594,1149.143247
4201.796482,-9918.759623,-444.123565,-459.657299
4201.796812,-8734.430116,-1036.288319,-1608.800546
4201.797142,-8438.347739,0.000000,459.657299
4201.797471,-9104.533087,-592.164754,689.485948
4201.797801,-10066.800811,-370.102971,1302.362347
4201.798131,-9400.615463,-592.164754,153.219100
4201.798461,-9548.656652,-296.082377,919.314598
4201.798791,-9696.697840,148.041188,1225.752797
4201.799121,-9844.739029,0.000000,689.485948
4201.799451,-10066.800811,0.000000,459.657299
4201.799780,-9474.636058,0.000000,-459.657299
4201.800110,-9178.553681,-814.226536,-995.924147
4201.800440,-9992.780217,-592.164754,-612.876398
4201.800770,-9622.677246,-814.226536,0.000000
4201.801100,-9844.739029,0.000000,536.266849
4201.801430,-9104.533087,0.000000,0.000000
4201.801759,-9770.718434,222.061783,-536.266849
4201.802089,-10066.800811,444.123565,-153.219100
4201.802419,-10658.965565,222.061783,153.219100
4201.802749,-10955.047942,74.020594,689.485948
4201.803079,-10288.862594,444.123565,459.657299
4201.803409,-9770.718434,296.082377,919.314598
4201.803738,-9548.656652,-444.123565,766.095498
4201.804068,-10214.842000,-370.102971,229.828649
4201.804398,-9992.780217,-814.226536,-306.438199
4201.804728,-9474.636058,-592.164754,-229.828649
4201.805058,-8882.471304,0.000000,0.000000
4201.805388,-9178.553681,444.123565,689.485948
4201.805718,-10362.883188,518.144159,1378.971896
4201.806047,-11103.089130,518.144159,842.705048
4201.806377,-10436.903782,74.020594,0.000000
4201.806707,-9770.718434,222.061783,76.609550
4201.807037,-10066.800811,444.123565,1532.190996
4201.807367,-10436.903782,296.082377,383.047749
4201.807697,-9474.636058,-370.102971,-919.314598
4201.808026,-8512.368333,0.000000,-1532.190996
4201.808356,-8734.430116,-296.082377,459.657299
4201.808686,-9696.697840,-74.020594,1302.362347
4201.809016,-9992.780217,222.061783,1762.019645
4201.809346,-9474.636058,296.082377,1225.752797
4201.809676,-8734.430116,370.102971,919.314598
4201.810005,-9992.780217,518.144159,459.657299
4201.810335,-11177.109724,148.041188,229.828649
4201.810665,-10732.986159,296.082377,-383.047749
4201.810995,-9178.553681,518.144159,-842.705048
4201.811325,-8586.388927,740.205942,-306.438199
4201.811655,-9400.615463,814.226536,-383.047749
4201.811984,-10362.883188,222.061783,76.609550
4201.812314,-9770.718434,222.061783,153.219100
4201.812644,-9178.553681,0.000000,0.000000
4201.812974,-9252.574275,740.205942,76.609550
4201.813304,-10066.800811,148.041188,766.095498
4201.813634,-10732.986159,740.205942,995.924147
4201.813964,-10066.800811,74.020594,-306.438199
4201.814293,-9770.718434,296.082377,0.000000
4201.814623,-10140.821405,222.061783,1225.752797
4201.814953,-9992.780217,370.102971,1072.533697
4201.815283,-10214.842000,222.061783,689.485948
4201.815613,-10214.842000,888.247130,229.828649
4201.815943,-9548.656652,148.041188,0.000000
4201.816272,-10214.842000,0.000000,-536.266849
4201.816602,-9622.677246,0.000000,0.000000
4201.816932,-9178.553681,592.164754,306.438199
4201.817262,-9548.656652,592.164754,0.000000
4201.817592,-9918.759623,148.041188,-689.485948
4201.817922,-9992.780217,296.082377,-383.047749
4201.818251,-10140.821405,0.000000,153.219100
4201.818581,-10807.006753,296.082377,459.657299
4201.818911,-9252.574275,-296.082377,1072.533697
4201.819241,-8438.347739,-740.205942,919.314598
4201.819571,-9474.636058,-592.164754,1225.752797
4201.819901,-10584.944971,-666.185348,153.219100
4201.820230,-11103.089130,-666.185348,-536.266849
4201.820560,-9326.594869,-296.082377,-612.876398
4201.820890,-8068.244768,-518.144159,459.657299
4201.821220,-8586.388927,-962.267725,1532.190996
4201.821550,-9622.677246,-148.041188,1838.629195
4201.821880,-9992.780217,-222.061783,995.924147
4201.822210,-10288.862594,-370.102971,-766.095498
4201.822539,-9918.759623,-444.123565,-1455.581446
4201.822869,-9770.718434,-962.267725,383.047749
4201.823199,-9622.677246,148.041188,1838.629195
4201.823529,-9474.636058,-518.144159,1915.238745
4201.823859,-9548.656652,0.000000,459.657299
4201.824189,-9178.553681,0.000000,-995.924147
4201.824518,-10140.821405,1110.308913,-1991.848295
4201.824848,-10658.965565,740.205942,-1225.752797
4201.825178,-10288.862594,962.267725,-306.438199
4201.825507,-8956.491898,-518.144159,-229.828649
4201.825837,-9474.636058,-370.102971,766.095498
4201.826167,-10362.883188,-592.164754,1072.533697
4201.826497,-10955.047942,74.020594,0.000000
4201.826826,-9178.553681,-296.082377,-1149.143247
4201.827156,-9474.636058,296.082377,-383.047749
4201.827486,-10214.842000,222.061783,1149.143247
4201.827815,-10362.883188,444.123565,1991.848295
4201.828145,-10288.862594,148.041188,842.705048
4201.828475,-9696.697840,0.000000,0.000000
4201.828805,-9992.780217,-222.061783,-612.876398
4201.829134,-10288.862594,-444.123565,0.000000
4201.829464,-10658.965565,-370.102971,919.314598
4201.829794,-9622.677246,-1184.329507,1225.752797
4201.830124,-9178.553681,-296.082377,1378.971896
4201.830453,-8660.409521,0.000000,1378.971896
4201.830783,-8956.491898,74.020594,459.657299
4201.831113,-10362.883188,814.226536,-612.876398
4201.831442,-10584.944971,444.123565,-689.485948
4201.831772,-9918.759623,-222.061783,0.000000
4201.832102,-9326.594869,-74.020594,612.876398
4201.832432,-8734.430116,0.000000,536.266849
4201.832761,-9548.656652,0.000000,766.095498
4201.833091,-10066.800811,-74.020594,-689.485948
4201.833421,-9178.553681,-814.226536,-1685.410096
4201.833750,-9030.512492,222.061783,76.609550
4201.834080,-9326.594869,296.082377,1302.362347
4201.834410,-9844.739029,592.164754,995.924147
4201.834740,-9844.739029,814.226536,153.219100
4201.835069,-9696.697840,814.226536,-1225.752797
4201.835399,-9844.739029,370.102971,-1455.581446
4201.835729,-10807.006753,740.205942,-1225.752797
4201.836059,-9918.759623,0.000000,153.219100
4201.836388,-8956.491898,0.000000,536.266849
4201.836718,-8438.347739,222.061783,0.000000
4201.837048,-9548.656652,296.082377,-76.609550
4201.837377,-10436.903782,296.082377,-766.095498
4201.837707,-10214.842000,296.082377,-459.657299
4201.838037,-9622.677246,444.123565,306.438199
4201.838367,-9770.718434,888.247130,1455.581446
4201.838696,-10288.862594,1110.308913,1378.971896
4201.839026,-10807.006753,370.102971,-306.438199
4201.839356,-10214.842000,592.164754,-1991.848295
4201.839685,-10066.800811,-148.041188,-1455.581446
4201.840015,-9844.739029,592.164754,0.000000
4201.840345,-9474.636058,222.061783,459.657299
4201.840675,-9178.553681,296.082377,536.266849
4201.841004,-8364.327145,0.000000,1072.533697
4201.841334,-9918.759623,296.082377,229.828649
4201.841664,-10881.027347,518.144159,0.000000
4201.841994,-11029.068536,370.102971,-459.657299
4201.842323,-10362.883188,222.061783,306.438199
4201.842653,-9252.574275,148.041188,153.219100
4201.842983,-9252.574275,0.000000,0.000000
4201.843312,-9770.718434,-222.061783,383.047749
4201.843642,-9992.780217,148.041188,689.485948
4201.843972,-8586.388927,0.000000,-383.047749
4201.844302,-9252.574275,0.000000,-153.219100
4201.844631,-9622.677246,-370.102971,383.047749
4201.844961,-10288.862594,-370.102971,1072.533697
4201.845291,-9622.677246,-592.164754,459.657299
4201.845620,-9326.594869,-592.164754,-153.219100
4201.845950,-9844.739029,-592.164754,-76.609550
4201.846280,-9178.553681,0.000000,306.438199
4201.846610,-9326.594869,0.000000,612.876398
4201.846939,-10066.800811,296.082377,842.705048
4201.847269,-10214.842000,-296.082377,536.266849
4201.847599,-10362.883188,222.061783,229.828649
4201.847928,-9104.533087,0.000000,-153.219100
4201.848258,-10658.965565,-592.164754,-1378.971896
4201.848588,-9474.636058,-814.226536,0.000000
4201.848918,-8882.471304,-444.123565,766.095498
4201.849247,-9918.759623,0.000000,1072.533697
4201.849577,-9400.615463,148.041188,306.438199
4201.849907,-10066.800811,814.226536,-306.438199
4201.850237,-10436.903782,0.000000,-153.219100
4201.850566,-10362.883188,592.164754,-153.219100
4201.850896,-10807.006753,370.102971,459.657299
4201.851226,-10140.821405,-296.082377,1378.971896
4201.851555,-9474.636058,74.020594,842.705048
4201.851885,-10140.821405,370.102971,-306.438199
4201.852215,-10658.965565,0.000000,0.000000
4201.852545,-9992.780217,222.061783,-383.047749
4201.852874,-8808.450710,0.000000,0.000000
4201.853204,-9474.636058,-370.102971,919.314598
4201.853534,-10584.944971,666.185348,1225.752797
4201.853863,-10658.965565,444.123565,842.705048
4201.854193,-10510.924376,370.102971,153.219100
4201.854523,-9622.677246,0.000000,0.000000
4201.854853,-9770.718434,-518.144159,0.000000
4201.855182,-9474.636058,74.020594,1072.533697
4201.855512,-8290.306550,0.000000,1225.752797
4201.855842,-9252.574275,0.000000,1149.143247
4201.856172,-9770.718434,518.144159,612.876398
4201.856501,-11029.068536,0.000000,-76.609550
4201.856831,-9400.615463,-444.123565,-766.095498
4201.857161,-9252.574275,222.061783,76.609550
4201.857490,-9548.656652,0.000000,842.705048
4201.857820,-9844.739029,370.102971,459.657299
4201.858150,-9622.677246,0.000000,-229.828649
4201.858480,-8956.491898,518.144159,-995.924147
4201.858809,-9622.677246,0.000000,-689.485948
4201.859139,-10362.883188,148.041188,0.000000
4201.859469,-9770.718434,-222.061783,-306.438199
4201.859798,-8882.471304,0.000000,1149.143247
4201.860128,-9030.512492,-518.144159,1149.143247
4201.860458,-10288.862594,-592.164754,536.266849
4201.860788,-10510.924376,148.041188,995.924147
4201.861117,-8956.491898,222.061783,536.266849
4201.861447,-10140.821405,666.185348,459.657299
4201.861777,-10140.821405,740.205942,0.000000
4201.862107,-10658.965565,666.185348,0.000000
4201.862436,-10510.924376,962.267725,-689.485948
4201.862766,-10658.965565,592.164754,-383.047749
4201.863096,-9844.739029,592.164754,-766.095498
4201.863425,-9770.718434,0.000000,-689.485948
4201.863755,-9622.677246,0.000000,-689.485948
4201.864085,-9770.718434,-444.123565,306.438199
4201.864415,-10288.862594,-222.061783,612.876398
4201.864744,-9548.656652,0.000000,383.047749
4201.865074,-8586.388927,592.164754,536.266849
4201.865404,-9474.636058,296.082377,536.266849
4201.865733,-10214.842000,518.144159,306.438199
4201.866063,-11473.192101,370.102971,1149.143247
4201.866393,-10362.883188,-222.061783,0.000000
4201.866723,-8956.491898,-444.123565,-383.047749
4201.867052,-7846.182985,-666.185348,0.000000
4201.867382,-8586.388927,-814.226536,153.219100
4201.867712,-9918.759623,0.000000,383.047749
4201.868041,-9622.677246,-814.226536,383.047749
4201.868371,-9696.697840,-148.041188,0.000000
4201.868701,-9696.697840,74.020594,842.705048
4201.869031,-10436.903782,74.020594,1149.143247
4201.869360,-10066.800811,888.247130,689.485948
4201.869690,-9770.718434,666.185348,-612.876398
4201.870020,-10584.944971,148.041188,-1149.143247
4201.870350,-9844.739029,444.123565,-842.705048
4201.870679,-9178.553681,0.000000,-612.876398
4201.871009,-9696.697840,592.164754,306.438199
4201.871339,-9400.615463,444.123565,1225.752797
4201.871668,-9844.739029,74.020594,153.219100
4201.871998,-9326.594869,222.061783,-766.095498
4201.872328,-9400.615463,222.061783,76.609550
4201.872658,-10288.862594,814.226536,306.438199
4201.872987,-10881.027347,592.164754,1149.143247
4201.873317,-10881.027347,1406.391290,383.047749
4201.873647,-10066.800811,1332.370696,-689.485948
4201.873976,-10288.862594,1110.308913,-1762.019645
4201.874306,-10066.800811,666.185348,-1685.410096
4201.874636,-10066.800811,518.144159,-459.657299
4201.874966,-10066.800811,518.144159,1762.019645
4201.875295,-9696.697840,370.102971,1685.410096
4201.875625,-9474.636058,222.061783,0.000000
4201.875955,-8660.409521,-296.082377,-1455.581446
4201.876285,-9326.594869,-222.061783,-229.828649
4201.876614,-10066.800811,-74.020594,1302.362347
4201.876944,-10288.862594,666.185348,2068.457845
4201.877274,-9918.759623,296.082377,1915.238745
4201.877603,-9400.615463,-592.164754,459.657299
4201.877933,-10214.842000,-74.020594,229.828649
4201.878263,-10214.842000,-518.144159,766.095498
4201.878593,-9548.656652,-814.226536,689.485948
4201.878922,-7920.203579,-296.082377,1149.143247
4201.879252,-8068.244768,-296.082377,1378.971896
4201.879582,-9770.718434,74.020594,842.705048
4201.879911,-10955.047942,-74.020594,153.219100
4201.880241,-10881.027347,-666.185348,-383.047749
4201.880571,-10066.800811,0.000000,0.000000
4201.880901,-9474.636058,-148.041188,383.047749
4201.881230,-8512.368333,-370.102971,689.485948
4201.881560,-8882.471304,74.020594,306.438199
4201.881890,-9844.739029,0.000000,612.876398
4201.882220,-11103.089130,222.061783,306.438199
4201.882549,-11769.274478,0.000000,-766.095498
4201.882879,-9622.677246,-444.123565,-536.266849
4201.883209,-9400.615463,-592.164754,842.705048
4201.883538,-9178.553681,-1332.370696,1915.238745
4201.883868,-8882.471304,-370.102971,1455.581446
4201.884198,-9104.533087,-518.144159,0.000000
4201.884528,-9474.636058,-592.164754,-459.657299
4201.884857,-10214.842000,0.000000,-306.438199
4201.885187,-10214.842000,0.000000,995.924147
4201.885517,-10288.862594,-222.061783,383.047749
4201.885846,-9400.615463,-370.102971,0.000000
4201.886176,-9326.594869,74.020594,0.000000
4201.886506,-10288.862594,0.000000,-612.876398
4201.886836,-10362.883188,296.082377,-1225.752797
4201.887165,-9326.594869,-592.164754,-689.485948
4201.887495,-9548.656652,74.020594,229.828649
4201.887825,-10955.047942,-370.102971,1149.143247
4201.888154,-10807.006753,-888.247130,612.876398
4201.888484,-9030.512492,-592.164754,383.047749
4201.888814,-9622.677246,-296.082377,1608.800546
4201.889144,-10066.800811,592.164754,1455.581446
4201.889473,-10362.883188,444.123565,153.219100
4201.889803,-9622.677246,222.061783,-536.266849
4201.890133,-9104.533087,1110.308913,0.000000
4201.890463,-11029.068536,1110.308913,0.000000
4201.890792,-11695.253884,962.267725,229.828649
4201.891122,-10362.883188,222.061783,-383.047749
4201.891452,-8290.306550,-296.082377,-306.438199
4201.891781,-7846.182985,-370.102971,0.000000
4201.892111,-9992.780217,-444.123565,689.485948
4201.892441,-9918.759623,-518.144159,1838.629195
4201.892771,-8882.471304,0.000000,2298.286494
4201.893100,-9844.739029,370.102971,2145.067394
4201.893430,-10732.986159,518.144159,1378.971896
4201.893760,-11177.109724,592.164754,153.219100
4201.894089,-9178.553681,74.020594,-766.095498
4201.894419,-9326.594869,444.123565,-536.266849
4201.894749,-9474.636058,518.144159,-306.438199
4201.895079,-9400.615463,222.061783,153.219100
4201.895408,-8142.265362,-296.082377,-689.485948
4201.895738,-8364.327145,0.000000,-459.657299
4201.896068,-9992.780217,0.000000,153.219100
4201.896398,-10288.862594,-148.041188,383.047749
4201.896727,-8512.368333,-296.082377,306.438199
4201.897057,-8586.388927,74.020594,229.828649
4201.897387,-11399.171507,222.061783,383.047749
4201.897716,-11769.274478,666.185348,229.828649
4201.898046,-10362.883188,74.020594,306.438199
4201.898376,-9400.615463,148.041188,229.828649
4201.898706,-8956.491898,74.020594,612.876398
4201.899035,-10362.883188,1258.350101,76.609550
4201.899365,-11103.089130,-444.123565,-536.266849
4201.899695,-9770.718434,370.102971,-1455.581446
4201.900024,-9326.594869,-592.164754,-1072.533697
4201.900354,-9474.636058,148.041188,-612.876398
4201.900684,-9696.697840,-222.061783,919.314598
4201.901014,-10066.800811,-370.102971,2374.896044
4201.901343,-9326.594869,-518.144159,1532.190996
4201.901673,-9992.780217,-740.205942,229.828649
4201.902003,-10510.924376,0.000000,-306.438199
4201.902332,-9548.656652,-148.041188,842.705048
4201.902662,-10214.842000,740.205942,1762.019645
4201.902992,-9918.759623,296.082377,919.314598
4201.903322,-10658.965565,222.061783,-306.438199
4201.903651,-10288.862594,-370.102971,-766.095498
4201.903981,-9548.656652,-518.144159,-1378.971896
4201.904311,-9104.533087,148.041188,-919.314598
4201.904641,-7994.224174,370.102971,-153.219100
4201.904970,-8290.306550,1036.288319,-459.657299
4201.905300,-9326.594869,814.226536,-612.876398
4201.905630,-10881.027347,888.247130,-1225.752797
4201.905959,-11399.171507,444.123565,-1838.629195
4201.906289,-10807.006753,148.041188,-612.876398
4201.906619,-9104.533087,0.000000,919.314598
4201.906949,-9104.533087,444.123565,1915.238745
4201.907278,-9622.677246,1110.308913,689.485948
4201.907608,-8882.471304,518.144159,-1149.143247
4201.907938,-9992.780217,444.123565,-459.657299
4201.908267,-9992.780217,740.205942,-229.828649
4201.908597,-10807.006753,518.144159,689.485948
4201.908927,-10436.903782,444.123565,919.314598
4201.909257,-9178.553681,0.000000,153.219100
4201.909586,-8956.491898,-444.123565,-76.609550
4201.909916,-8068.244768,-148.041188,459.657299
4201.910246,-9474.636058,444.123565,919.314598
4201.910576,-10955.047942,1332.370696,2221.676944
4201.910905,-10214.842000,444.123565,612.876398
4201.911235,-9622.677246,0.000000,306.438199
4201.911565,-9474.636058,0.000000,0.000000
4201.911894,-10584.944971,0.000000,1072.533697
4201.912224,-10066.800811,-740.205942,1378.971896
4201.912554,-9178.553681,-222.061783,1532.190996
4201.912884,-9326.594869,-888.247130,0.000000
4201.913213,-9770.718434,0.000000,919.314598
4201.913543,-10140.821405,0.000000,1225.752797
4201.913873,-10510.924376,518.144159,766.095498
4201.914202,-8438.347739,962.267725,-459.657299
4201.914532,-9474.636058,-518.144159,-1915.238745
4201.914862,-9622.677246,-148.041188,-1225.752797
4201.915192,-9770.718434,0.000000,689.485948
4201.915521,-10807.006753,740.205942,0.000000
4201.915851,-9030.512492,-740.205942,-689.485948
4201.916181,-8808.450710,0.000000,-383.047749
4201.916511,-9548.656652,-740.205942,612.876398
4201.916840,-10436.903782,-1480.411884,153.219100
4201.917170,-10881.027347,-1332.370696,459.657299
4201.917500,-9178.553681,-1258.350101,1225.752797
4201.917829,-8068.244768,0.000000,1149.143247
4201.918159,-9844.739029,0.000000,459.657299
4201.918489,-10658.965565,-444.123565,459.657299
4201.918819,-11103.089130,0.000000,306.438199
4201.919148,-10436.903782,296.082377,-919.314598
4201.919478,-9770.718434,-148.041188,-459.657299
4201.919808,-9844.739029,148.041188,0.000000
4201.920137,-9474.636058,148.041188,0.000000
4201.920467,-9548.656652,-370.102971,-1378.971896
4201.920797,-9992.780217,-444.123565,-1685.410096
4201.921127,-9770.718434,-666.185348,-306.438199
4201.921456,-10288.862594,148.041188,1762.019645
4201.921786,-11103.089130,814.226536,2145.067394
4201.922116,-10436.903782,74.020594,1762.019645
4201.922445,-10066.800811,-592.164754,1685.410096
4201.922775,-9474.636058,-296.082377,1455.581446
4201.923105,-10807.006753,0.000000,995.924147
4201.923435,-9844.739029,74.020594,-153.219100
4201.923764,-8438.347739,-740.205942,-306.438199
4201.924094,-7846.182985,0.000000,0.000000
4201.924424,-9030.512492,74.020594,383.047749
4201.924754,-10732.986159,0.000000,766.095498
4201.925083,-10214.842000,592.164754,76.609550
4201.925413,-8956.491898,-74.020594,-995.924147
4201.925743,-9326.594869,518.144159,-229.828649
4201.926072,-10510.924376,148.041188,919.314598
4201.926402,-9992.780217,148.041188,1838.629195
4201.926732,-8660.409521,0.000000,612.876398
4201.927061,-8438.347739,1184.329507,-1225.752797
4201.927391,-9696.697840,296.082377,-842.705048
4201.927721,-10362.883188,1036.288319,0.000000
4201.928051,-10288.862594,740.205942,306.438199
4201.928381,-9548.656652,0.000000,-995.924147
4201.928710,-8956.491898,-296.082377,-2068.457845
4201.929040,-7476.080014,0.000000,0.000000
4201.929370,-8512.368333,518.144159,536.266849
4201.929700,-10436.903782,1480.411884,383.047749
4201.930029,-10510.924376,888.247130,-842.705048
4201.930359,-10066.800811,592.164754,-1225.752797
4201.930689,-9400.615463,1110.308913,-766.095498
4201.931019,-10658.965565,0.000000,459.657299
4201.931349,-10955.047942,740.205942,995.924147
4201.931678,-8882.471304,148.041188,153.219100
4201.932008,-7698.141797,444.123565,-1378.971896
4201.932338,-9474.636058,592.164754,229.828649
4201.932668,-11251.130318,740.205942,1225.752797
4201.932997,-11325.150913,1110.308913,76.609550
4201.933327,-9992.780217,1332.370696,-536.266849
4201.933657,-9918.759623,444.123565,-612.876398
4201.933987,-10436.903782,888.247130,-153.219100
4201.934317,-9844.739029,148.041188,306.438199
4201.934646,-9696.697840,592.164754,153.219100
4201.934976,-9326.594869,592.164754,459.657299
4201.935306,-9474.636058,1258.350101,306.438199
4201.935636,-11029.068536,1036.288319,-306.438199
4201.935966,-10807.006753,444.123565,-689.485948
4201.936295,-10066.800811,222.061783,-1225.752797
4201.936625,-9474.636058,0.000000,-383.047749
4201.936955,-7994.224174,-370.102971,-459.657299
4201.937285,-8290.306550,-74.020594,153.219100
4201.937614,-8660.409521,1480.411884,459.657299
4201.937944,-9992.780217,740.205942,-612.876398
4201.938274,-10732.986159,1406.391290,-1532.190996
4201.938604,-10510.924376,740.205942,-995.924147
4201.938934,-10658.965565,1258.350101,-995.924147
4201.939263,-9844.739029,1406.391290,-919.314598
4201.939593,-8660.409521,444.123565,-2145.067394
4201.939923,-8142.265362,666.185348,-3140.991542
4201.940253,-8882.471304,666.185348,-2221.676944
4201.940583,-10066.800811,1480.411884,-306.438199
4201.940912,-10214.842000,1480.411884,-383.047749
4201.941242,-9400.615463,962.267725,-1302.362347
4201.941572,-9474.636058,1332.370696,-1608.800546
4201.941902,-10584.944971,1924.535449,-689.485948
4201.942231,-10584.944971,1480.411884,-1762.019645
4201.942561,-9326.594869,1332.370696,-2681.334243
4201.942891,-8512.368333,1702.473667,-2681.334243
4201.943221,-9030.512492,1184.329507,-2298.286494
4201.943551,-9548.656652,1628.453072,-1225.752797
4201.943880,-9770.718434,1184.329507,-612.876398
4201.944210,-10510.924376,1554.432478,-1838.629195
4201.944540,-9548.656652,740.205942,-2451.505594
4201.944870,-8660.409521,1258.350101,-2068.457845
4201.945200,-8586.388927,1702.473667,-1072.533697
4201.945529,-9548.656652,2146.597232,-459.657299
4201.945859,-11103.089130,2368.659014,-1455.581446
4201.946189,-10066.800811,1924.535449,-1762.019645
4201.946519,-11029.068536,1776.494261,-2145.067394
4201.946848,-10955.047942,888.247130,-995.924147
4201.947178,-9696.697840,1110.308913,919.314598
4201.947508,-9104.533087,1406.391290,612.876398
4201.947838,-7698.141797,1702.473667,-1225.752797
4201.948168,-8290.306550,2368.659014,-2528.115143
4201.948497,-10066.800811,3478.967927,-3600.648841
4201.948827,-11251.130318,3108.864956,-3524.039291
4201.949157,-11251.130318,2886.803174,-2528.115143
4201.949487,-10436.903782,2886.803174,-1915.238745
4201.949816,-9696.697840,2294.638420,-1225.752797
4201.950146,-9696.697840,2146.597232,-2298.286494
4201.950476,-8956.491898,1776.494261,-3370.820191
4201.950806,-8364.327145,1776.494261,-3140.991542
4201.951136,-8956.491898,2812.782580,-1838.629195
4201.951465,-9548.656652,3478.967927,-1378.971896
4201.951795,-10881.027347,3478.967927,-1378.971896
4201.952125,-10807.006753,3478.967927,-2911.162892
4201.952455,-9696.697840,2220.617826,-3600.648841
4201.952785,-9622.677246,2738.761985,-4060.306139
4201.953114,-9474.636058,2072.576638,-3294.210641
4201.953444,-8882.471304,1924.535449,-1991.848295
4201.953774,-7772.162391,2072.576638,-842.705048
4201.954104,-8734.430116,2368.659014,-1378.971896
4201.954433,-9400.615463,2368.659014,-1915.238745
4201.954763,-10955.047942,2812.782580,-1991.848295
4201.955093,-10732.986159,2960.823768,-1991.848295
4201.955423,-10510.924376,2960.823768,-536.266849
4201.955753,-11103.089130,3256.906145,-536.266849
4201.956082,-10066.800811,2812.782580,-766.095498
4201.956412,-9770.718434,3034.844362,-2451.505594
4201.956742,-9474.636058,2442.679609,-3907.087040
4201.957072,-9104.533087,2516.700203,-3983.696590
4201.957402,-8882.471304,1998.556043,-2374.896044
4201.957731,-8734.430116,2072.576638,-842.705048
4201.958061,-8882.471304,1036.288319,-536.266849
4201.958391,-11325.150913,1924.535449,-1532.190996
4201.958721,-9992.780217,2812.782580,-1378.971896
4201.959050,-10362.883188,1924.535449,-2298.286494
4201.959380,-9918.759623,2220.617826,-1762.019645
4201.959710,-7254.018232,1776.494261,536.266849
4201.960040,-10214.842000,2664.741391,612.876398
4201.960370,-11325.150913,1924.535449,-1072.533697
4201.960699,-10288.862594,2368.659014,-2528.115143
4201.961029,-8660.409521,2590.720797,-2681.334243
4201.961359,-9400.615463,2146.597232,-2604.724693
4201.961689,-10436.903782,2294.638420,-1991.848295
4201.962019,-9326.594869,1924.535449,-2681.334243
4201.962348,-7994.224174,2072.576638,-3217.601092
4201.962678,-8660.409521,1998.556043,-3600.648841
4201.963008,-10881.027347,1998.556043,-3830.477490
4201.963338,-9844.739029,2294.638420,-2757.943793
4201.963667,-9326.594869,1776.494261,-1762.019645
4201.963997,-9030.512492,1184.329507,-995.924147
4201.964327,-9770.718434,1406.391290,-612.876398
4201.964657,-10658.965565,1110.308913,-459.657299
4201.964987,-9400.615463,1110.308913,-766.095498
4201.965316,-8956.491898,1850.514855,-2068.457845
4201.965646,-10436.903782,2368.659014,-1838.629195
4201.965976,-10732.986159,2072.576638,-1762.019645
4201.966306,-9918.759623,2590.720797,-1915.238745
4201.966635,-8882.471304,2146.597232,-3447.429741
4201.966965,-10066.800811,1406.391290,-4136.915689
4201.967295,-9844.739029,1998.556043,-3064.381992
4201.967625,-9030.512492,1406.391290,-3064.381992
4201.967955,-8882.471304,1702.473667,-1838.629195
4201.968284,-9548.656652,1480.411884,0.000000
4201.968614,-10510.924376,1776.494261,-459.657299
4201.968944,-10658.965565,1332.370696,-919.314598
4201.969274,-9326.594869,1702.473667,-536.266849
4201.969604,-9770.718434,1258.350101,-459.657299
4201.969933,-10955.047942,2072.576638,-766.095498
4201.970263,-10510.924376,2368.659014,-1532.190996
4201.970593,-9770.718434,1924.535449,-2068.457845
4201.970923,-8882.471304,2368.659014,-2987.772442
4201.971252,-9326.594869,1998.556043,-2834.553343
4201.971582,-10288.862594,2146.597232,-2451.505594
4201.971912,-9696.697840,1998.556043,-2298.286494
4201.972242,-9548.656652,1628.453072,-2145.067394
4201.972572,-8734.430116,1628.453072,-1991.848295
4201.972901,-9474.636058,1998.556043,-2068.457845
4201.973231,-9696.697840,1480.411884,-1838.629195
4201.973561,-10140.821405,1998.556043,-1225.752797
4201.973891,-9770.718434,2368.659014,-1225.752797
4201.974221,-9252.574275,1924.535449,-2068.457845
4201.974550,-9770.718434,2738.761985,-2681.334243
4201.974880,-9770.718434,2516.700203,-2374.896044
4201.975210,-9992.780217,2590.720797,-1762.019645
4201.975540,-9992.780217,2590.720797,-1762.019645
4201.975869,-8956.491898,2294.638420,-2681.334243
4201.976199,-9104.533087,2294.638420,-3140.991542
4201.976529,-9474.636058,2590.720797,-3600.648841
4201.976859,-9252.574275,2072.576638,-3140.991542
4201.977189,-9104.533087,2368.659014,-2911.162892
4201.977518,-9252.574275,3034.844362,-1838.629195
4201.977848,-9252.574275,2442.679609,-1149.143247
4201.978178,-10288.862594,2590.720797,-1225.752797
4201.978508,-9918.759623,2368.659014,-1225.752797
4201.978838,-9770.718434,2664.741391,-1685.410096
4201.979167,-10732.986159,2442.679609,-1762.019645
4201.979497,-10140.821405,2294.638420,-1378.971896
4201.979827,-9178.553681,2294.638420,-995.924147
4201.980157,-9104.533087,2368.659014,-1685.410096
4201.980486,-9474.636058,2220.617826,-2298.286494
4201.980816,-9844.739029,2812.782580,-3294.210641
4201.981146,-9474.636058,3108.864956,-3447.429741
4201.981476,-9474.636058,2516.700203,-2451.505594
4201.981806,-10436.903782,2812.782580,-1225.752797
4201.982135,-10510.924376,2442.679609,-995.924147
4201.982465,-10066.800811,2368.659014,-1225.752797
4201.982795,-9622.677246,1850.514855,-2298.286494
4201.983125,-9548.656652,1924.535449,-2604.724693
4201.983454,-9992.780217,1776.494261,-1532.190996
4201.983784,-9844.739029,1480.411884,-536.266849
4201.984114,-9474.636058,1924.535449,-383.047749
4201.984444,-9622.677246,2368.659014,-1072.533697
4201.984774,-9622.677246,2072.576638,-2757.943793
4201.985103,-10066.800811,2368.659014,-3677.258390
4201.985433,-9474.636058,2146.597232,-3294.210641
4201.985763,-9696.697840,1776.494261,-1378.971896
4201.986093,-10214.842000,2146.597232,0.000000
4201.986423,-10066.800811,1702.473667,-1149.143247
4201.986752,-8882.471304,1702.473667,-2911.162892
4201.987082,-8734.430116,1332.370696,-3600.648841
4201.987412,-9178.553681,1628.453072,-3064.381992
4201.987742,-9474.636058,1554.432478,-1915.238745
4201.988071,-9770.718434,2072.576638,-229.828649
4201.988401,-9770.718434,2072.576638,-153.219100
4201.988731,-9622.677246,2442.679609,-1685.410096
4201.989061,-10214.842000,2072.576638,-2987.772442
4201.989391,-10584.944971,1998.556043,-3753.867940
4201.989720,-10140.821405,1702.473667,-1838.629195
4201.990050,-9548.656652,1702.473667,-766.095498
4201.990380,-9252.574275,1776.494261,-536.266849
4201.990710,-9474.636058,1702.473667,-1149.143247
4201.991040,-9844.739029,1258.350101,-2604.724693
4201.991369,-9622.677246,1776.494261,-3524.039291
4201.991699,-9474.636058,2072.576638,-3064.381992
4201.992029,-9622.677246,2220.617826,-1991.848295
4201.992359,-9696.697840,2368.659014,-766.095498
4201.992688,-10066.800811,2442.679609,-536.266849
4201.993018,-10288.862594,1924.535449,-1762.019645
4201.993348,-10288.862594,1776.494261,-2145.067394
4201.993678,-10214.842000,1776.494261,-2451.505594
4201.994008,-9918.759623,1480.411884,-1378.971896
4201.994337,-9770.718434,1554.432478,-536.266849
4201.994667,-8660.409521,1628.453072,-1532.190996
4201.994997,-8734.430116,1554.432478,-2451.505594
4201.995327,-9548.656652,2220.617826,-1915.238745
4201.995657,-9992.780217,2072.576638,-2221.676944
4201.995986,-9992.780217,2664.741391,-2374.896044
4201.996316,-9622.677246,2442.679609,-2374.896044
4201.996646,-9844.739029,2072.576638,-1991.848295
4201.996976,-10288.862594,2072.576638,-1915.238745
4201.997305,-10140.821405,2146.597232,-2068.457845
4201.997635,-9104.533087,1628.453072,-2451.505594
4201.997965,-8364.327145,1184.329507,-1532.190996
4201.998295,-9178.553681,1406.391290,-1685.410096
4201.998625,-9252.574275,1258.350101,-766.095498
4201.998954,-9474.636058,2072.576638,-1915.238745
4201.999284,-10510.924376,1998.556043,-2068.457845
4201.999614,-11103.089130,2146.597232,-1608.800546
4201.999944,-10584.944971,1776.494261,-919.314598
4202.000273,-9844.739029,1332.370696,-306.438199
4202.000603,-9696.697840,1258.350101,0.000000
4202.000933,-9474.636058,1184.329507,-459.657299
4202.001263,-9400.615463,814.226536,-766.095498
4202.001593,-9252.574275,666.185348,-612.876398
4202.001922,-9770.718434,1406.391290,-995.924147
4202.002252,-9400.615463,1332.370696,-1762.019645
4202.002582,-9178.553681,1332.370696,-2221.676944
4202.002912,-8808.450710,1258.350101,-1991.848295
4202.003242,-10214.842000,1776.494261,-1302.362347
4202.003571,-10436.903782,1776.494261,-1685.410096
4202.003901,-9548.656652,1258.350101,-2911.162892
4202.004231,-9030.512492,1702.473667,-3983.696590
4202.004561,-9178.553681,1406.391290,-2834.553343
4202.004890,-10140.821405,1554.432478,-1762.019645
4202.005220,-10214.842000,1480.411884,-919.314598
4202.005550,-9178.553681,1110.308913,-1762.019645
4202.005880,-8956.491898,1332.370696,-2451.505594
4202.006210,-9474.636058,1702.473667,-2757.943793
4202.006539,-9992.780217,1776.494261,-2757.943793
4202.006869,-10066.800811,2368.659014,-3064.381992
4202.007199,-9622.677246,2368.659014,-2681.334243
4202.007529,-9844.739029,2368.659014,-2451.505594
4202.007859,-10436.903782,2442.679609,-1608.800546
4202.008188,-10510.924376,2516.700203,-2068.457845
4202.008518,-10214.842000,2368.659014,-1991.848295
4202.008848,-10066.800811,2368.659014,-2451.505594
4202.009178,-10140.821405,2442.679609,-2374.896044
4202.009507,-9918.759623,2368.659014,-2451.505594
4202.009837,-9178.553681,2442.679609,-2528.115143
4202.010167,-8956.491898,2516.700203,-2604.724693
4202.010497,-9622.677246,2812.782580,-2374.896044
4202.010827,-10066.800811,3256.906145,-1685.410096
4202.011156,-10584.944971,3256.906145,-1302.362347
4202.011486,-9918.759623,3701.029710,-2145.067394
4202.011816,-9918.759623,3404.947333,-2987.772442
4202.012146,-9770.718434,3108.864956,-3140.991542
4202.012475,-9918.759623,2886.803174,-1532.190996
4202.012805,-9844.739029,3108.864956,-612.876398
4202.013135,-9326.594869,3404.947333,-1838.629195
4202.013465,-8290.306550,3256.906145,-3447.429741
4202.013795,-8586.388927,3330.926739,-4443.353888
4202.014124,-8956.491898,3552.988522,-2987.772442
4202.014454,-10066.800811,4071.132681,-1455.581446
4202.014784,-9696.697840,3701.029710,-1455.581446
4202.015114,-8956.491898,3478.967927,-1225.752797
4202.015444,-9104.533087,3108.864956,-1532.190996
4202.015773,-9992.780217,2886.803174,-2068.457845
4202.016103,-10436.903782,2442.679609,-1991.848295
4202.016433,-9030.512492,2368.659014,-2451.505594
4202.016763,-8438.347739,2516.700203,-2298.286494
4202.017092,-8882.471304,2886.803174,-1762.019645
4202.017422,-9696.697840,3330.926739,-1685.410096
4202.017752,-9844.739029,3108.864956,-2145.067394
4202.018082,-9696.697840,2960.823768,-2528.115143
4202.018412,-9918.759623,2960.823768,-2528.115143
4202.018741,-11103.089130,2516.700203,-306.438199
4202.019071,-11103.089130,2368.659014,-76.609550
4202.019401,-10214.842000,2146.597232,-1532.190996
4202.019731,-8734.430116,1258.350101,-2987.772442
4202.020061,-9178.553681,1184.329507,-2451.505594
4202.020390,-9992.780217,1332.370696,-612.876398
4202.020720,-9400.615463,1332.370696,153.219100
4202.021050,-9474.636058,1850.514855,-689.485948
4202.021380,-9918.759623,2294.638420,-1762.019645
4202.021709,-10510.924376,1998.556043,-2681.334243
4202.022039,-10955.047942,1998.556043,-2834.553343
4202.022369,-10362.883188,1406.391290,-2374.896044
4202.022699,-9918.759623,962.267725,-1455.581446
4202.023029,-9326.594869,296.082377,-1532.190996
4202.023358,-8956.491898,148.041188,-1608.800546
4202.023688,-8734.430116,-74.020594,-1838.629195
4202.024018,-8586.388927,0.000000,-1915.238745
4202.024348,-9474.636058,148.041188,-1608.800546
4202.024678,-10066.800811,444.123565,-306.438199
4202.025007,-10362.883188,962.267725,0.000000
4202.025337,-10510.924376,1258.350101,-842.705048
4202.025667,-10658.965565,1406.391290,-2681.334243
4202.025997,-10584.944971,1258.350101,-2834.553343
4202.026327,-10658.965565,1406.391290,-2221.676944
4202.026656,-10288.862594,1258.350101,-1532.190996
4202.026986,-9622.677246,1332.370696,-2298.286494
4202.027316,-8956.491898,1036.288319,-3677.258390
4202.027646,-8438.347739,370.102971,-3524.039291
4202.027976,-9474.636058,666.185348,-1838.629195
4202.028305,-9548.656652,1036.288319,153.219100
4202.028635,-9548.656652,666.185348,-306.438199
4202.028965,-9252.574275,1480.411884,-1302.362347
4202.029295,-9918.759623,1628.453072,-1455.581446
4202.029625,-11843.295072,2590.720797,-1608.800546
4202.029954,-11251.130318,2738.761985,-1762.019645
4202.030284,-9918.759623,2294.638420,-2298.286494
4202.030614,-9178.553681,2664.741391,-2145.067394
4202.030944,-9252.574275,2146.597232,-1302.362347
4202.031274,-10288.862594,2442.679609,-1378.971896
4202.031604,-9326.594869,2220.617826,-3524.039291
4202.031933,-8290.306550,2516.700203,-4903.011187
4202.032263,-8734.430116,2220.617826,-3983.696590
4202.032593,-10288.862594,3182.885551,-1532.190996
4202.032923,-9992.780217,2664.741391,-919.314598
4202.033253,-10066.800811,3256.906145,-1532.190996
4202.033582,-9178.553681,2812.782580,-2834.553343
4202.033912,-10214.842000,2738.761985,-2221.676944
4202.034242,-10436.903782,2960.823768,-1762.019645
4202.034572,-9622.677246,2738.761985,-842.705048
4202.034902,-9030.512492,2738.761985,-1149.143247
4202.035231,-9400.615463,2664.741391,-2451.505594
4202.035561,-8882.471304,2664.741391,-3064.381992
4202.035891,-9178.553681,2886.803174,-2298.286494
4202.036221,-9622.677246,3034.844362,-2451.505594
4202.036551,-9104.533087,2664.741391,-2451.505594
4202.036881,-9474.636058,3627.009116,-2834.553343
4202.037210,-9474.636058,3256.906145,-2451.505594
4202.037540,-10658.965565,3404.947333,-1991.848295
4202.037870,-10807.006753,3404.947333,-1838.629195
4202.038200,-9474.636058,2664.741391,-2145.067394
4202.038530,-9252.574275,2442.679609,-1608.800546
4202.038859,-9326.594869,2812.782580,-1762.019645
4202.039189,-9770.718434,2886.803174,-2451.505594
4202.039519,-8660.409521,2294.638420,-3140.991542
4202.039849,-8512.368333,2368.659014,-3370.820191
4202.040179,-10510.924376,2738.761985,-2604.724693
4202.040508,-11769.274478,2960.823768,-689.485948
4202.040838,-10510.924376,2738.761985,0.000000
4202.041168,-9400.615463,2368.659014,-306.438199
4202.041498,-9474.636058,2368.659014,-2451.505594
4202.041828,-11103.089130,1924.535449,-2068.457845
4202.042158,-10955.047942,2886.803174,-995.924147
4202.042487,-9104.533087,1998.556043,-1378.971896
4202.042817,-8808.450710,1702.473667,-2681.334243
4202.043147,-9918.759623,1776.494261,-2451.505594
4202.043477,-9918.759623,1850.514855,-2298.286494
4202.043807,-8956.491898,1998.556043,-2834.553343
4202.044136,-9548.656652,2072.576638,-2451.505594
4202.044466,-11029.068536,2220.617826,-1378.971896
4202.044796,-11029.068536,2146.597232,-766.095498
4202.045126,-10066.800811,2072.576638,-995.924147
4202.045456,-9400.615463,1036.288319,-1302.362347
4202.045785,-9844.739029,1406.391290,-1991.848295
4202.046115,-9696.697840,592.164754,-2451.505594
4202.046445,-8956.491898,518.144159,-1455.581446
4202.046775,-8734.430116,1110.308913,-306.438199
4202.047105,-10584.944971,1036.288319,612.876398
4202.047435,-10881.027347,1258.350101,-153.219100
4202.047764,-9696.697840,1258.350101,-1608.800546
4202.048094,-8882.471304,1628.453072,-2681.334243
4202.048424,-9474.636058,1776.494261,-1915.238745
4202.048754,-10807.006753,2072.576638,-995.924147
4202.049084,-10436.903782,2294.638420,-1378.971896
4202.049413,-9622.677246,1924.535449,-2911.162892
4202.049743,-9548.656652,1480.411884,-2604.724693
4202.050073,-9992.780217,1702.473667,-2681.334243
4202.050403,-9918.759623,962.267725,-1915.238745
4202.050733,-9178.553681,370.102971,-919.314598
4202.051062,-8660.409521,1628.453072,1302.362347
4202.051392,-8216.285956,1628.453072,153.219100
4202.051722,-10214.842000,1924.535449,-919.314598
4202.052052,-11325.150913,1628.453072,-2451.505594
4202.052382,-10436.903782,1110.308913,-2604.724693
4202.052712,-9622.677246,1628.453072,-1608.800546
4202.053041,-9696.697840,1554.432478,-229.828649
4202.053371,-9400.615463,1480.411884,229.828649
4202.053701,-8956.491898,1850.514855,-229.828649
4202.054031,-9178.553681,1776.494261,-1991.848295
4202.054361,-9474.636058,1480.411884,-2757.943793
4202.054690,-9844.739029,1554.432478,-2911.162892
4202.055020,-9400.615463,888.247130,-1532.190996
4202.055350,-9622.677246,1184.329507,-76.609550
4202.055680,-9474.636058,1036.288319,-1225.752797
4202.056010,-9770.718434,962.267725,-1762.019645
4202.056340,-9844.739029,1258.350101,-2068.457845
4202.056669,-9326.594869,2368.659014,-1608.800546
4202.056999,-10066.800811,1332.370696,-995.924147
4202.057329,-11029.068536,2072.576638,-153.219100
4202.057659,-10881.027347,1184.329507,229.828649
4202.057989,-10362.883188,962.267725,0.000000
4202.058318,-9178.553681,814.226536,-1762.019645
4202.058648,-7920.203579,296.082377,-2451.505594
4202.058978,-8808.450710,222.061783,-2374.896044
4202.059308,-9178.553681,592.164754,-1608.800546
4202.059638,-9918.759623,1036.288319,0.000000
4202.059967,-9844.739029,1184.329507,-229.828649
4202.060297,-9918.759623,1110.308913,0.000000
4202.060627,-10955.047942,1036.288319,842.705048
4202.060957,-10807.006753,444.123565,995.924147
4202.061287,-9696.697840,74.020594,-459.657299
4202.061617,-9104.533087,0.000000,-229.828649
4202.061946,-9474.636058,518.144159,0.000000
4202.062276,-10066.800811,74.020594,536.266849
4202.062606,-10510.924376,296.082377,76.609550
4202.062936,-9104.533087,740.205942,-766.095498
4202.063266,-8956.491898,1110.308913,-1915.238745
4202.063595,-10584.944971,1036.288319,-1149.143247
4202.063925,-11029.068536,740.205942,842.705048
4202.064255,-9474.636058,814.226536,2528.115143
4202.064585,-10362.883188,1332.370696,2068.457845
4202.064915,-11473.192101,888.247130,76.609550
4202.065244,-11029.068536,148.041188,-689.485948
4202.065574,-9622.677246,-370.102971,-1762.019645
4202.065904,-8956.491898,-1036.288319,689.485948
4202.066234,-9474.636058,-296.082377,2834.553343
4202.066564,-8808.450710,-222.061783,3294.210641
4202.066894,-7698.141797,148.041188,1302.362347
4202.067223,-8956.491898,518.144159,0.000000
4202.067553,-11695.253884,1258.350101,-153.219100
4202.067883,-13027.624579,592.164754,459.657299
4202.068213,-10807.006753,666.185348,1378.971896
4202.068543,-8586.388927,-148.041188,459.657299
4202.068872,-9178.553681,0.000000,76.609550
4202.069202,-9178.553681,-296.082377,0.000000
4202.069532,-8586.388927,-962.267725,-612.876398
4202.069862,-8216.285956,-740.205942,-536.266849
4202.070192,-9030.512492,-740.205942,1378.971896
4202.070521,-10436.903782,-296.082377,2681.334243
4202.070851,-9548.656652,0.000000,1991.848295
4202.071181,-9770.718434,0.000000,689.485948
4202.071511,-9844.739029,-148.041188,459.657299
4202.071841,-11177.109724,0.000000,536.266849
4202.072171,-10881.027347,0.000000,459.657299
4202.072500,-9770.718434,0.000000,153.219100
4202.072830,-9474.636058,-296.082377,-1302.362347
4202.073160,-9474.636058,-814.226536,-1685.410096
4202.073490,-9474.636058,-888.247130,-612.876398
4202.073820,-9030.512492,-1702.473667,0.000000
4202.074149,-8734.430116,-1702.473667,1455.581446
4202.074479,-9548.656652,-814.226536,1378.971896
4202.074809,-10288.862594,0.000000,1149.143247
4202.075139,-9548.656652,0.000000,76.609550
4202.075469,-9104.533087,-296.082377,-919.314598
4202.075798,-10510.924376,-518.144159,-459.657299
4202.076128,-11769.274478,222.061783,76.609550
4202.076458,-10584.944971,-444.123565,-995.924147
4202.076788,-8956.491898,-1480.411884,-766.095498
4202.077118,-9104.533087,-666.185348,0.000000
4202.077448,-9770.718434,-962.267725,612.876398
4202.077777,-9252.574275,-1184.329507,306.438199
4202.078107,-8216.285956,-814.226536,153.219100
4202.078437,-9474.636058,-296.082377,1455.581446
4202.078767,-11695.253884,444.123565,1072.533697
4202.079097,-11843.295072,444.123565,-76.609550
4202.079426,-10732.986159,296.082377,-306.438199
4202.079756,-9770.718434,-296.082377,0.000000
4202.080086,-9622.677246,-222.061783,919.314598
4202.080416,-9326.594869,222.061783,0.000000
4202.080746,-8734.430116,222.061783,-919.314598
4202.081075,-8438.347739,-148.041188,-153.219100
4202.081405,-9770.718434,444.123565,229.828649
4202.081735,-10881.027347,666.185348,229.828649
4202.082065,-10658.965565,518.144159,842.705048
4202.082395,-9622.677246,296.082377,0.000000
4202.082725,-9474.636058,518.144159,76.609550
4202.083054,-9918.759623,148.041188,0.000000
4202.083384,-10584.944971,370.102971,0.000000
4202.083714,-10214.842000,-222.061783,0.000000
4202.084044,-9622.677246,1036.288319,1685.410096
4202.084374,-9696.697840,888.247130,1072.533697
4202.084703,-8808.450710,592.164754,0.000000
4202.085033,-9252.574275,1110.308913,-383.047749
4202.085363,-9844.739029,740.205942,-689.485948
4202.085693,-10288.862594,0.000000,-995.924147
4202.086023,-9030.512492,592.164754,-766.095498
4202.086352,-8216.285956,0.000000,-306.438199
4202.086682,-9252.574275,1036.288319,1302.362347
4202.087012,-9992.780217,888.247130,0.000000
4202.087342,-10658.965565,888.247130,-383.047749
4202.087672,-10584.944971,518.144159,-1378.971896
4202.088002,-9030.512492,1406.391290,153.219100
4202.088331,-9770.718434,1110.308913,1608.800546
4202.088661,-10658.965565,1998.556043,1685.410096
4202.088991,-9844.739029,518.144159,-306.438199
4202.089321,-8660.409521,444.123565,-2604.724693
4202.089651,-9326.594869,296.082377,-2757.943793
4202.089980,-9770.718434,592.164754,-306.438199
4202.090310,-10881.027347,296.082377,1838.629195
4202.090640,-10436.903782,370.102971,2451.505594
4202.090970,-8734.430116,-222.061783,2374.896044
4202.091300,-9474.636058,0.000000,459.657299
4202.091629,-9918.759623,148.041188,-689.485948
4202.091959,-10807.006753,0.000000,536.266849
4202.092289,-10066.800811,74.020594,1991.848295
4202.092619,-9918.759623,370.102971,1991.848295
4202.092949,-9622.677246,148.041188,689.485948
4202.093279,-9770.718434,-370.102971,-1762.019645
4202.093608,-9548.656652,0.000000,-2911.162892
4202.093938,-9622.677246,-370.102971,-536.266849
4202.094268,-9918.759623,-222.061783,1149.143247
4202.094598,-9770.718434,-296.082377,2451.505594
4202.094928,-9992.780217,148.041188,1455.581446
4202.095257,-9844.739029,-888.247130,-306.438199
4202.095587,-9918.759623,-222.061783,-842.705048
4202.095917,-10362.883188,-592.164754,-306.438199
4202.096247,-10288.862594,-814.226536,1302.362347
4202.096577,-9622.677246,-592.164754,2221.676944
4202.096907,-9104.533087,-370.102971,1455.581446
4202.097236,-8882.471304,-1332.370696,-689.485948
4202.097566,-8808.450710,-1406.391290,-459.657299
4202.097896,-8956.491898,-962.267725,229.828649
4202.098226,-10288.862594,-814.226536,1149.143247
4202.098556,-10955.047942,0.000000,1302.362347
4202.098885,-10436.903782,-1184.329507,766.095498
4202.099215,-9918.759623,-370.102971,536.266849
4202.099545,-9548.656652,-148.041188,0.000000
4202.099875,-10436.903782,370.102971,306.438199
4202.100205,-10584.944971,740.205942,689.485948
4202.100534,-9696.697840,888.247130,229.828649
4202.100864,-9622.677246,296.082377,-766.095498
4202.101194,-10658.965565,370.102971,-1762.019645
4202.101524,-11695.253884,0.000000,-1455.581446
4202.101854,-10140.821405,74.020594,-536.266849
4202.102184,-7846.182985,0.000000,0.000000
4202.102513,-7846.182985,0.000000,229.828649
4202.102843,-9400.615463,0.000000,383.047749
4202.103173,-10807.006753,740.205942,76.609550
4202.103503,-10584.944971,888.247130,536.266849
4202.103833,-10881.027347,148.041188,76.609550
4202.104162,-9992.780217,666.185348,536.266849
4202.104492,-9548.656652,148.041188,689.485948
4202.104822,-9474.636058,740.205942,689.485948
4202.105152,-9252.574275,-296.082377,-1072.533697
4202.105482,-9918.759623,592.164754,-842.705048
4202.105811,-9252.574275,740.205942,0.000000
4202.106141,-8808.450710,518.144159,0.000000
4202.106471,-9104.533087,1184.329507,306.438199
4202.106801,-10066.800811,296.082377,0.000000
4202.107131,-10362.883188,370.102971,-995.924147
4202.107461,-9104.533087,-148.041188,-919.314598
4202.107790,-9252.574275,740.205942,153.219100
4202.108120,-9622.677246,444.123565,2757.943793
4202.108450,-10584.944971,888.247130,2145.067394
4202.108780,-10066.800811,296.082377,1149.143247
4202.109110,-9178.553681,0.000000,0.000000
4202.109439,-9104.533087,444.123565,-766.095498
4202.109769,-9844.739029,666.185348,76.609550
4202.110099,-10658.965565,740.205942,689.485948
4202.110429,-9252.574275,518.144159,1072.533697
4202.110759,-9178.553681,518.144159,0.000000
4202.111088,-9252.574275,370.102971,-1302.362347
4202.111418,-9992.780217,296.082377,-1225.752797
4202.111748,-9992.780217,0.000000,459.657299
4202.112078,-9474.636058,0.000000,2145.067394
4202.112408,-9918.759623,0.000000,2757.943793
4202.112738,-10955.047942,-296.082377,2298.286494
4202.113067,-10807.006753,0.000000,1225.752797
4202.113397,-9696.697840,-370.102971,306.438199
4202.113727,-9622.677246,0.000000,153.219100
4202.114057,-9918.759623,-740.205942,766.095498
4202.114387,-9252.574275,-592.164754,1915.238745
4202.114716,-9622.677246,0.000000,1685.410096
4202.115046,-10362.883188,370.102971,0.000000
4202.115376,-9992.780217,0.000000,-1532.190996
4202.115706,-10584.944971,-370.102971,-1991.848295
4202.116036,-10140.821405,0.000000,-153.219100
4202.116365,-9918.759623,-666.185348,612.876398
4202.116695,-9400.615463,-888.247130,1378.971896
4202.117025,-9252.574275,-296.082377,766.095498
4202.117355,-9770.718434,-740.205942,0.000000
4202.117685,-9696.697840,74.020594,-1378.971896
4202.118015,-10140.821405,-666.185348,-766.095498
4202.118344,-9622.677246,-962.267725,1072.533697
4202.118674,-9178.553681,-740.205942,919.314598
4202.119004,-9252.574275,-740.205942,383.047749
4202.119334,-8290.306550,-888.247130,-842.705048
4202.119664,-8808.450710,0.000000,-1455.581446
4202.119993,-10066.800811,0.000000,-1225.752797
4202.120323,-10658.965565,-592.164754,-536.266849
4202.120653,-9030.512492,-296.082377,919.314598
4202.120983,-8734.430116,0.000000,1225.752797
4202.121313,-9474.636058,-370.102971,383.047749
4202.121642,-10066.800811,-592.164754,-153.219100
4202.121972,-10658.965565,-444.123565,-383.047749
4202.122302,-10066.800811,-74.020594,76.609550
4202.122632,-9992.780217,0.000000,766.095498
4202.122962,-9252.574275,0.000000,1302.362347
4202.123292,-9178.553681,1406.391290,995.924147
4202.123621,-9844.739029,814.226536,459.657299
4202.123951,-10881.027347,666.185348,-612.876398
4202.124281,-11029.068536,74.020594,-459.657299
4202.124611,-9770.718434,222.061783,0.000000
4202.124941,-9696.697840,444.123565,536.266849
4202.125270,-10510.924376,74.020594,0.000000
4202.125600,-9178.553681,222.061783,-383.047749
4202.125930,-8586.388927,-740.205942,-1225.752797
4202.126260,-9326.594869,-74.020594,689.485948
4202.126590,-10066.800811,-370.102971,2374.896044
4202.126919,-10362.883188,-370.102971,2681.334243
4202.127249,-9474.636058,444.123565,1991.848295
4202.127579,-9474.636058,-296.082377,1455.581446
4202.127909,-9918.759623,-370.102971,229.828649
4202.128239,-9992.780217,-370.102971,0.000000
4202.128568,-9622.677246,0.000000,229.828649
4202.128898,-9104.533087,296.082377,0.000000
4202.129228,-9178.553681,444.123565,-383.047749
4202.129558,-9474.636058,0.000000,-536.266849
4202.129888,-10510.924376,518.144159,0.000000
4202.130217,-10732.986159,370.102971,0.000000
4202.130547,-9844.739029,74.020594,153.219100
4202.130877,-9400.615463,518.144159,0.000000
4202.131207,-9400.615463,222.061783,0.000000
4202.131536,-10436.903782,-222.061783,-229.828649
4202.131866,-9992.780217,0.000000,459.657299
4202.132196,-10066.800811,-296.082377,383.047749
4202.132526,-10140.821405,74.020594,919.314598
4202.132856,-9770.718434,222.061783,1302.362347
4202.133185,-9548.656652,296.082377,1302.362347
4202.133515,-9622.677246,518.144159,0.000000
4202.133845,-10362.883188,666.185348,-536.266849
4202.134175,-10140.821405,-592.164754,-459.657299
4202.134505,-9326.594869,444.123565,-229.828649
4202.134834,-9178.553681,370.102971,153.219100
4202.135164,-9918.759623,592.164754,229.828649
4202.135494,-9918.759623,370.102971,-766.095498
4202.135824,-10066.800811,518.144159,-229.828649
4202.136153,-10955.047942,518.144159,0.000000
4202.136483,-10584.944971,666.185348,842.705048
4202.136813,-10140.821405,592.164754,1149.143247
4202.137143,-9548.656652,592.164754,1302.362347
4202.137473,-9474.636058,518.144159,0.000000
4202.137802,-9992.780217,74.020594,-766.095498
4202.138132,-10510.924376,444.123565,-612.876398
4202.138462,-9696.697840,666.185348,-383.047749
4202.138792,-8882.471304,444.123565,-1072.533697
4202.139121,-9696.697840,888.247130,-536.266849
4202.139451,-9844.739029,444.123565,76.609550
4202.139781,-10066.800811,740.205942,0.000000
4202.140111,-9622.677246,296.082377,-689.485948
4202.140441,-9252.574275,0.000000,0.000000
4202.140770,-9474.636058,370.102971,306.438199
4202.141100,-9622.677246,222.061783,0.000000
4202.141430,-10066.800811,222.061783,0.000000
4202.141760,-9770.718434,-666.185348,-306.438199
4202.142089,-9178.553681,-888.247130,76.609550
4202.142419,-8882.471304,74.020594,536.266849
4202.142749,-9252.574275,74.020594,919.314598
4202.143079,-9474.636058,592.164754,766.095498
4202.143409,-9104.533087,0.000000,76.609550
4202.143738,-9474.636058,-296.082377,0.000000
4202.144068,-10732.986159,0.000000,1225.752797
4202.144398,-10955.047942,518.144159,1532.190996
4202.144728,-9474.636058,-74.020594,612.876398
4202.145058,-7846.182985,-370.102971,-536.266849
4202.145387,-9400.615463,0.000000,229.828649
4202.145717,-11769.274478,0.000000,995.924147
4202.146047,-11399.171507,-148.041188,995.924147
4202.146377,-8808.450710,-296.082377,1072.533697
4202.146706,-8808.450710,0.000000,1225.752797
4202.147036,-10510.924376,74.020594,536.266849
4202.147366,-11325.150913,-1184.329507,536.266849
4202.147696,-10732.986159,-666.185348,842.705048
4202.148026,-9622.677246,-370.102971,919.314598
4202.148355,-9918.759623,-370.102971,1225.752797
4202.148685,-9474.636058,-370.102971,766.095498
4202.149015,-9030.512492,-888.247130,459.657299
4202.149345,-8882.471304,-814.226536,-76.609550
4202.149674,-10288.862594,-444.123565,229.828649
4202.150004,-11103.089130,-444.123565,689.485948
4202.150334,-10066.800811,-370.102971,919.314598
4202.150664,-10066.800811,0.000000,842.705048
4202.150994,-9844.739029,-444.123565,-76.609550
4202.151323,-10214.842000,-444.123565,0.000000
4202.151653,-9992.780217,-888.247130,-459.657299
4202.151983,-9104.533087,-814.226536,-459.657299
4202.152313,-9178.553681,0.000000,1072.533697
4202.152642,-9992.780217,0.000000,1378.971896
4202.152972,-10436.903782,-370.102971,0.000000
4202.153302,-10214.842000,-296.082377,-229.828649
4202.153632,-9400.615463,-666.185348,-919.314598
4202.153962,-8956.491898,-296.082377,-842.705048
4202.154291,-9030.512492,222.061783,383.047749
4202.154621,-10658.965565,-296.082377,1072.533697
4202.154951,-10288.862594,666.185348,1608.800546
4202.155281,-10362.883188,518.144159,-459.657299
4202.155610,-10732.986159,518.144159,-1532.190996
4202.155940,-9252.574275,592.164754,-1072.533697
4202.156270,-9918.759623,962.267725,-689.485948
4202.156600,-9918.759623,222.061783,383.047749
4202.156930,-9696.697840,962.267725,-306.438199
4202.157259,-9400.615463,148.041188,-153.219100
4202.157589,-9474.636058,296.082377,-1072.533697
4202.157919,-9400.615463,666.185348,919.314598
4202.158249,-9252.574275,222.061783,1225.752797
4202.158579,-9474.636058,1258.350101,0.000000
4202.158908,-9400.615463,1184.329507,-383.047749
4202.159238,-9844.739029,370.102971,-612.876398
4202.159568,-9548.656652,962.267725,-689.485948
4202.159898,-10066.800811,1184.329507,0.000000
4202.160227,-10214.842000,888.247130,459.657299
4202.160557,-9622.677246,1110.308913,153.219100
4202.160887,-8586.388927,666.185348,-153.219100
4202.161217,-9252.574275,888.247130,-1149.143247
4202.161547,-10140.821405,1702.473667,-1149.143247
4202.161876,-10288.862594,518.144159,0.000000
4202.162206,-10510.924376,1110.308913,229.828649
4202.162536,-9178.553681,444.123565,0.000000
4202.162866,-8882.471304,0.000000,383.047749
4202.163195,-9474.636058,740.205942,689.485948
4202.163525,-10066.800811,222.061783,1302.362347
4202.163855,-11103.089130,888.247130,2145.067394
4202.164185,-11103.089130,444.123565,1455.581446
4202.164515,-10584.944971,666.185348,612.876398
4202.164844,-9622.677246,0.000000,0.000000
4202.165174,-9178.553681,-148.041188,-1072.533697
4202.165504,-8956.491898,-370.102971,-995.924147
4202.165834,-8660.409521,296.082377,-459.657299
4202.166163,-9104.533087,74.020594,536.266849
4202.166493,-10955.047942,0.000000,1149.143247
4202.166823,-10658.965565,-444.123565,1149.143247
4202.167153,-9918.759623,-518.144159,766.095498
4202.167483,-9474.636058,222.061783,229.828649
4202.167812,-9622.677246,0.000000,0.000000
4202.168142,-10362.883188,0.000000,0.000000
4202.168472,-9918.759623,444.123565,0.000000
4202.168802,-10436.903782,222.061783,76.609550
4202.169132,-10362.883188,-444.123565,1149.143247
4202.169461,-9918.759623,-444.123565,1149.143247
4202.169791,-9918.759623,-1258.350101,-306.438199
4202.170121,-8512.368333,-814.226536,-153.219100
4202.170451,-9326.594869,-1036.288319,0.000000
4202.170780,-10214.842000,-962.267725,536.266849
4202.171110,-10140.821405,-962.267725,919.314598
4202.171440,-9400.615463,-1110.308913,842.705048
4202.171770,-8808.450710,-518.144159,153.219100
4202.172100,-9770.718434,-666.185348,536.266849
4202.172429,-11621.233289,-518.144159,1072.533697
4202.172759,-10584.944971,-740.205942,306.438199
4202.173089,-9252.574275,-1406.391290,-536.266849
4202.173419,-8660.409521,-1406.391290,0.000000
4202.173748,-9400.615463,-740.205942,1685.410096
4202.174078,-10140.821405,-592.164754,612.876398
4202.174408,-9474.636058,-962.267725,-689.485948
4202.174738,-9030.512492,-592.164754,229.828649
4202.175068,-9326.594869,-444.123565,1685.410096
4202.175397,-10658.965565,-74.020594,1685.410096
4202.175727,-11103.089130,592.164754,76.609550
4202.176057,-9622.677246,0.000000,-995.924147
4202.176387,-9474.636058,-148.041188,-689.485948
4202.176716,-9696.697840,-148.041188,0.000000
4202.177046,-10288.862594,-370.102971,612.876398
4202.177376,-9474.636058,296.082377,1149.143247
4202.177706,-8956.491898,148.041188,1378.971896
4202.178036,-9770.718434,74.020594,536.266849
4202.178365,-9992.780217,-148.041188,0.000000
4202.178695,-9992.780217,-74.020594,536.266849
4202.179025,-9326.594869,296.082377,766.095498
4202.179355,-9474.636058,740.205942,76.609550
4202.179684,-9548.656652,814.226536,-612.876398
4202.180014,-9622.677246,0.000000,0.000000
4202.180344,-10214.842000,740.205942,919.314598
4202.180674,-10436.903782,592.164754,1149.143247
4202.181004,-10214.842000,74.020594,153.219100
4202.181333,-8808.450710,0.000000,689.485948
4202.181663,-8956.491898,222.061783,536.266849
4202.181993,-9548.656652,888.247130,-383.047749
4202.182323,-10436.903782,814.226536,-842.705048
4202.182653,-9992.780217,740.205942,-459.657299
4202.182982,-9474.636058,666.185348,306.438199
4202.183312,-9992.780217,592.164754,1149.143247
4202.183642,-10658.965565,1480.411884,459.657299
4202.183972,-9844.739029,814.226536,-689.485948
4202.184301,-9844.739029,444.123565,0.000000
4202.184631,-9770.718434,444.123565,689.485948
4202.184961,-10584.944971,740.205942,1532.190996
4202.185291,-10510.924376,1480.411884,612.876398
4202.185621,-9400.615463,666.185348,-689.485948
4202.185950,-9548.656652,592.164754,-153.219100
4202.186280,-9622.677246,1036.288319,689.485948
4202.186610,-10214.842000,592.164754,689.485948
4202.186940,-9770.718434,592.164754,-153.219100
4202.187269,-9252.574275,592.164754,-842.705048
4202.187599,-10214.842000,814.226536,0.000000
4202.187929,-10510.924376,148.041188,383.047749
4202.188259,-10140.821405,0.000000,995.924147
4202.188589,-8438.347739,74.020594,995.924147
4202.188918,-9104.533087,148.041188,76.609550
4202.189248,-9548.656652,444.123565,-459.657299
4202.189578,-9770.718434,0.000000,-536.266849
4202.189908,-9696.697840,740.205942,919.314598
4202.190237,-10288.862594,592.164754,76.609550
4202.190567,-10658.965565,0.000000,-766.095498
